"trial_type","trial_index","plugin_version","time_elapsed","sona_id","phase","rt","stimulus","response","consented","required_key","view_history","question_order","success","timeout","failed_images","failed_audio","failed_video","set_size","distractor_type","block","stimuli_list","correct","locations","target_present","break_key"
"pavlovia","0","null","839","78845","","","","","","","","","","","","","","","","","","","","",""
"html-button-response","1","2.1.0","8663","78845","informed_consent","7821","
    <div style=""max-width: 900px; margin: 0 auto; padding: 20px; text-align: left; line-height: 1.6;"">
      <h1 style=""text-align: center; color: #333; font-size: 24px; margin-bottom: 10px; font-weight: bold;"">
        INFORMED CONSENT INFORMATION
      </h1>
      <h2 style=""text-align: center; color: #333; font-size: 22px; margin-bottom: 20px; font-weight: bold;"">
        FOR RESEARCH PARTICIPATION
      </h2>
      
      <p style=""margin-bottom: 10px;""><strong>Study Title:</strong> The Effects of Mindfulness and Attention on Life Satisfaction and Memory</p>
      <p style=""margin-bottom: 10px;""><strong>Principal Investigator:</strong> Ella Bremmer</p>
      <p style=""margin-bottom: 10px;""><strong>Co-Principal Investigator:</strong> Dr. Gregory Cox</p>
      <p style=""margin-bottom: 20px;""><strong>IRB Study Number:</strong> STUDY00006288</p>

      <p style=""margin-bottom: 15px;"">I am a student at the University at Albany, in the Department of Psychology. I am planning to conduct a research study, which I invite you to take part in.</p>
      
      <p style=""margin-bottom: 25px;"">This form has important information about the reasons for doing this study, what we will ask you to do, and the way we would like to use the information we collect about you.</p>

      <h3 style=""color: #333; font-size: 18px; margin-top: 25px; margin-bottom: 10px; font-weight: bold;"">
        Why are you doing this study?
      </h3>
      <p style=""margin-bottom: 15px;"">You are being asked to participate in a research study that aims to understand if there is a relationship between mindfulness, the ability to pay attention, and life satisfaction.</p>
      
      <p style=""margin-bottom: 25px;"">The purpose of this study is to investigate if having better control over one's attention influences overall life satisfaction. Your participation will help us better understand if mindfulness and attention do have a significant effect on life satisfaction (i.e., how people feel about their lives overall). Then you will be asked to perform a conjunction visual search task to test your capacity to direct your attention over a sustained period.</p>

      <h3 style=""color: #333; font-size: 18px; margin-top: 25px; margin-bottom: 10px; font-weight: bold;"">
        Why am I eligible to participate in this study?
      </h3>
      <p style=""margin-bottom: 25px;"">You are eligible to participate because you are a student at UAlbany, are at least 18 years old, and are proficient in English.</p>

      <h3 style=""color: #333; font-size: 18px; margin-top: 25px; margin-bottom: 10px; font-weight: bold;"">
        What will I do if I choose to be in this study?
      </h3>
      <p style=""margin-bottom: 10px;"">If you choose to take part in our study, you will do the following:</p>
      <p style=""margin-bottom: 8px; margin-left: 20px;"">1. Read and agree to the informed consent.</p>
      <p style=""margin-bottom: 8px; margin-left: 40px;"">a. If you choose not to agree to the informed consent, you will be taken back to the SONA site.</p>
      <p style=""margin-bottom: 8px; margin-left: 20px;"">2. Complete a demographic questionnaire that asks about your age, English proficiency, gender, and race.</p>
      <p style=""margin-bottom: 8px; margin-left: 20px;"">3. Read instructions for the visual search task, which asks you to indicate if a target (a red triangle) is present among various other colored shapes. You should press the ""F"" key if a red triangle is present, or the ""J"" key if the target is absent.</p>
      <p style=""margin-bottom: 8px; margin-left: 20px;"">4. You will be asked to respond to 270 visual search trials, whith the opportunity to take short breaks as you go</p>
      <p style=""margin-bottom: 8px; margin-left: 20px;"">5. You will complete the Mindfulness Attention Awareness Scale (MAAS), the Satisfaction With Life Scale (SWLS), and the Big Five Inventory.</p>
      <p style=""margin-bottom: 25px; margin-left: 20px;"">6.	After all questionnaires are completed, participants will be thanked for their time and will be provided the study debriefing. Following the debriefing, you will be sent back to the SONA research site.</p>

      <h3 style=""color: #333; font-size: 18px; margin-top: 25px; margin-bottom: 10px; font-weight: bold;"">
        For how long will I participate?
      </h3>
      <p style=""margin-bottom: 25px;"">This study is a single online session that you can complete on a computer. The study can be completed in less than 30 minutes but could require as long as 45 minutes to complete.</p>

      <h3 style=""color: #333; font-size: 18px; margin-top: 25px; margin-bottom: 10px; font-weight: bold;"">
        Where will I need to go to participate?
      </h3>
      <p style=""margin-bottom: 25px;"">All study procedures will take place online and can be completed wherever you have internet connection.</p>

      <h3 style=""color: #333; font-size: 18px; margin-top: 25px; margin-bottom: 10px; font-weight: bold;"">
        Are there any costs I should be aware of?
      </h3>
      <p style=""margin-bottom: 25px;"">Participation is not expected to incur cost to participants. Free internet access is available anywhere on campus and in the university library.</p>

      <h3 style=""color: #333; font-size: 18px; margin-top: 25px; margin-bottom: 10px; font-weight: bold;"">
        What are the possible risks or discomforts?
      </h3>
      <p style=""margin-bottom: 15px;"">As with all research, there is a chance that confidentiality of the information we collect from you could be breached – we will take steps to minimize this risk, as discussed in more detail below.</p>
      
      <p style=""margin-bottom: 25px;"">The risks associated with participating in this study are minimal; however, you may experience mild discomfort when reflecting on your mindfulness or life satisfaction when answering questionnaires in the study. To help minimize this, you can withdraw from the study at any time without any consequences. The study will take place online, and you will have the opportunity to take breaks while completing the survey to reduce the risk of eye strain associated with the use of electronic devices.</p>

      <h3 style=""color: #333; font-size: 18px; margin-top: 25px; margin-bottom: 10px; font-weight: bold;"">
        What are the possible benefits for me or others?
      </h3>
      <p style=""margin-bottom: 25px;"">While there are no direct personal benefits to participants of this study, you may find value in reflecting on your mindfulness, attention, and its impact on life satisfaction by completing this survey. The data you contribute may help advance society's understanding of how mindfulness and attention relate to overall well-being, potentially informing future programs or interventions aimed at improving student mental health, attention, and life satisfaction.</p>

      <h3 style=""color: #333; font-size: 18px; margin-top: 25px; margin-bottom: 10px; font-weight: bold;"">
        Will I receive compensation for my participation?
      </h3>
      <p style=""margin-bottom: 25px;"">SONA partial class credit will be awarded via the Psychology Department SONA research pool after you complete the survey in its entirety. Participants who withdraw before completing the survey will not receive partial credit. You will not receive monetary compensation for your participation in this study.</p>

      <h3 style=""color: #333; font-size: 18px; margin-top: 25px; margin-bottom: 10px; font-weight: bold;"">
        How will you protect the information you collect about me, and how will that information be shared?
      </h3>
      <p style=""margin-bottom: 15px;"">Results of this study may be used in publications and presentations. Your data will be handled as confidentially as possible, and no identifiable information will be collected to link your data back to you. If results of this study are published or presented, only de-identified summaries of data will be used.</p>
      
      <p style=""margin-bottom: 25px;"">To minimize the risks to confidentiality, all data will be collected anonymously via Pavlovia.org which uses encryption to protect information (https://pavlovia.org/docs/home/ethics). Only the student researcher (Ella Bremmer), mentor (Pierce Johnson), and faculty advisor (Gregory Cox) will have password-protected access to the data. Data will be stored on secure, university approved computers.</p>

      <h3 style=""color: #333; font-size: 18px; margin-top: 25px; margin-bottom: 10px; font-weight: bold;"">
        Will my data be used in future research?
      </h3>
      <p style=""margin-bottom: 25px;"">No personal identifiers will be collected in the data you provide us. Data will not be used in future research, and will be deleted after the required retention period.</p>

      <h3 style=""color: #333; font-size: 18px; margin-top: 25px; margin-bottom: 10px; font-weight: bold;"">
        What are my rights as a research participant?
      </h3>
      <p style=""margin-bottom: 15px;"">Participation in this study is voluntary. You do not have to answer any question you do not want to answer. If at any time and for any reason, you would prefer not to participate in this study, please feel free not to. If at any time you would like to stop participating, you are welcome to stop. You can take a break or stop altogether. You may withdraw from this study at any time, and you will not be penalized in any way for deciding to stop participation.</p>
      
      <p style=""margin-bottom: 25px;"">If you decide to withdraw from this study, any information collected from you before withdrawing will not be used, and your data will be deleted.</p>

      <h3 style=""color: #333; font-size: 18px; margin-top: 25px; margin-bottom: 10px; font-weight: bold;"">
        What if I am a University at Albany student or employee?
      </h3>
      <p style=""margin-bottom: 25px;"">You may choose not to participate or to stop participating in this research at any time. This will not affect your class standing, grades, employment, or any other aspects of your relationship with the University at Albany.</p>

      <h3 style=""color: #333; font-size: 18px; margin-top: 25px; margin-bottom: 10px; font-weight: bold;"">
        Who can I contact if I have questions or concerns about this research study?
      </h3>
      <p style=""margin-bottom: 15px;"">If you have questions, please feel free to stop and email the investigator, Ella Bremmer (ebremmer@albany.edu) or advisors, Pierce Johnson (pjohnson4@albany.edu) and Dr. Greg Cox (gecox@albany.edu). If you have questions later, you may also contact the researchers.</p>
      
      <p style=""margin-bottom: 10px;"">If you have any questions about your rights as a participant in this research, you can contact the following office at the University at Albany:</p>
      
      <p style=""margin-bottom: 5px; margin-left: 20px;"">Institutional Review Board</p>
      <p style=""margin-bottom: 5px; margin-left: 20px;"">University at Albany</p>
      <p style=""margin-bottom: 5px; margin-left: 20px;"">Office of Regulatory and Research Compliance</p>
      <p style=""margin-bottom: 5px; margin-left: 20px;"">1400 Washington Ave, Biology 227</p>
      <p style=""margin-bottom: 5px; margin-left: 20px;"">Albany, NY 12222</p>
      <p style=""margin-bottom: 5px; margin-left: 20px;"">Phone: 1-866-857-5459</p>
      <p style=""margin-bottom: 25px; margin-left: 20px;"">Email: rco@albany.edu</p>

      <h3 style=""color: #333; font-size: 18px; margin-top: 30px; margin-bottom: 10px; font-weight: bold;"">
        Consent
      </h3>
      <p style=""margin-bottom: 20px;"">I have read this form and the research study has been explained to me. I have been given the opportunity to ask questions and my questions have been answered. If I have additional questions, I have been told whom to contact. I agree to participate in the research study described above. I understand that I have the opportunity to download and save a copy of this form for my records.</p>

      <div style=""background-color: #f9f9f9; border: 2px solid #4CAF50; border-radius: 5px; padding: 20px; margin-top: 20px; margin-bottom: 20px;"">
        <p style=""margin-bottom: 15px; font-weight: bold;"">To save a copy of this consent form for your records, press Ctrl+P (Windows/Linux) or Cmd+P (Mac) and select ""Save as PDF"".</p>
        <p style=""margin-bottom: 0; font-weight: bold;"">By clicking ""I Agree"" below, I confirm that I agree to participate in the research study described above, and that doing so serves as my written signature consenting to take part in the study.</p>
      </div>
    </div>
  ","0","true","","","","","","","","","","","","","","","",""
"instructions","3","2.1.0","11180","78845","intro_instructions","2515","","","","f","[{""page_index"":0,""viewing_time"":2515}]","","","","","","","","","","","","","",""
"html-keyboard-response","4","2.1.0","13183","78845","intermediate_slide_demo","null","<p style=""font-size:4vw"">Demographic Questionnaire</p>","null","","","","","","","","","","","","","","","","",""
"survey-multi-choice","5","2.1.0","19083","78845","demographics_english","5896","","{""english"":""Strongly agree""}","","","","[0]","","","","","","","","","","","","",""
"survey-text","7","2.1.0","22899","78845","demographics_age","3806","","{""age"":""18""}","","","","","","","","","","","","","","","","",""
"survey-multi-select","9","2.1.0","26116","78845","demographics_gender","3215","","{""gender"":[""Man""]}","","","","[0]","","","","","","","","","","","","",""
"survey-multi-choice","11","2.1.0","28131","78845","demographics_race","2012","","{""race"":""Black or African American""}","","","","[0]","","","","","","","","","","","","",""
"html-keyboard-response","12","2.1.0","30133","78845","intermediate_slide_VS","null","<p style=""font-size:4vw"">Visual Search Task</p>","null","","","","","","","","","","","","","","","","",""
"preload","13","2.1.0","30364","78845","image_preload","","","","","","","","true","false","[]","[]","[]","","","","","","","",""
"html-button-response","14","2.1.0","37863","78845","vs_instructions","7497","<p>On the following screens, you will see a series of colored shapes (triangles, squares, and circles) appear.</p>
    <p>Please Press 'F' if there <strong>is</strong> a red triangle among the shapes you see.</p>
    <p>Press 'J' if there is <strong>not</strong> a red triangle among the shapes you see.</p>","0","","","","","","","","","","","","","","","","",""
"visual-search-circle","15","2.2.0","43396","78845","visual_search_trial","4029","","j","","","","","","","","","","null","red_blue_mix","0","[""images/Blue_Circle.png"",""images/Red_Circle.png"",""images/Red_Circle.png""]","true","[[16,187],[233,187],[125,0]]","false",""
"visual-search-circle","16","2.2.0","45552","78845","visual_search_trial","649","","j","","","","","","","","","","null","red_circle","0","[""images/Red_Circle.png"",""images/Red_Circle.png"",""images/Red_Circle.png"",""images/Red_Circle.png"",""images/Red_Circle.png"",""images/Red_Circle.png"",""images/Red_Circle.png"",""images/Red_Circle.png"",""images/Red_Circle.png""]","true","[[109,0],[33,39],[0,118],[25,200],[96,246],[181,236],[240,173],[244,88],[193,20]]","false",""
"visual-search-circle","17","2.2.0","48478","78845","visual_search_trial","1422","","f","","","","","","","","","","null","blue_triangle","0","[""images/Red_Triangle.png"",""images/Blue_Triangle.png"",""images/Blue_Triangle.png"",""images/Blue_Triangle.png"",""images/Blue_Triangle.png"",""images/Blue_Triangle.png""]","true","[[70,12],[0,116],[55,228],[179,237],[249,133],[194,21]]","true",""
"visual-search-circle","18","2.2.0","51245","78845","visual_search_trial","1263","","f","","","","","","","","","","null","red_blue_mix","0","[""images/Red_Triangle.png"",""images/Red_Circle.png"",""images/Blue_Circle.png""]","true","[[15,64],[127,249],[232,60]]","true",""
"visual-search-circle","19","2.2.0","53574","78845","visual_search_trial","825","","j","","","","","","","","","","null","red_circle","0","[""images/Red_Circle.png"",""images/Red_Circle.png"",""images/Red_Circle.png"",""images/Red_Circle.png"",""images/Red_Circle.png"",""images/Red_Circle.png""]","true","[[131,0],[20,56],[13,181],[118,249],[229,193],[236,68]]","false",""
"visual-search-circle","20","2.2.0","55727","78845","visual_search_trial","650","","f","","","","","","","","","","null","blue_triangle","0","[""images/Red_Triangle.png"",""images/Blue_Triangle.png"",""images/Blue_Triangle.png""]","true","[[249,140],[76,9],[49,224]]","true",""
"visual-search-circle","21","2.2.0","58477","78845","visual_search_trial","1244","","j","","","","","","","","","","null","red_blue_mix","0","[""images/Red_Circle.png"",""images/Blue_Circle.png"",""images/Blue_Triangle.png"",""images/Blue_Circle.png"",""images/Blue_Triangle.png"",""images/Blue_Triangle.png"",""images/Blue_Circle.png"",""images/Red_Circle.png"",""images/Blue_Triangle.png""]","true","[[5,88],[9,173],[68,236],[153,246],[224,200],[249,118],[216,39],[140,0],[56,20]]","false",""
"visual-search-circle","22","2.2.0","60642","78845","visual_search_trial","661","","f","","","","","","","","","","null","red_circle","0","[""images/Red_Triangle.png"",""images/Red_Circle.png"",""images/Red_Circle.png""]","true","[[173,9],[0,140],[200,224]]","true",""
"visual-search-circle","23","2.2.0","62983","78845","visual_search_trial","837","","j","","","","","","","","","","null","red_blue_mix","0","[""images/Red_Circle.png"",""images/Red_Circle.png"",""images/Blue_Triangle.png"",""images/Blue_Triangle.png"",""images/Red_Circle.png"",""images/Blue_Circle.png""]","true","[[30,42],[6,165],[101,247],[219,207],[243,84],[148,2]]","false",""
"visual-search-circle","24","2.2.0","65119","78845","visual_search_trial","631","","f","","","","","","","","","","null","blue_triangle","0","[""images/Red_Triangle.png"",""images/Blue_Triangle.png"",""images/Blue_Triangle.png"",""images/Blue_Triangle.png"",""images/Blue_Triangle.png"",""images/Blue_Triangle.png"",""images/Blue_Triangle.png"",""images/Blue_Triangle.png"",""images/Blue_Triangle.png""]","true","[[70,12],[10,74],[4,159],[55,228],[138,249],[214,211],[249,133],[226,51],[155,3]]","true",""
"visual-search-circle","25","2.2.0","67509","78845","visual_search_trial","885","","f","","","","","","","","","","null","red_blue_mix","0","[""images/Red_Triangle.png"",""images/Blue_Triangle.png"",""images/Blue_Circle.png"",""images/Blue_Circle.png"",""images/Blue_Triangle.png"",""images/Blue_Triangle.png"",""images/Blue_Triangle.png"",""images/Red_Circle.png"",""images/Blue_Circle.png""]","true","[[213,213],[249,135],[227,53],[157,4],[72,11],[11,72],[4,157],[53,227],[135,249]]","true",""
"visual-search-circle","26","2.2.0","69620","78845","visual_search_trial","608","","j","","","","","","","","","","null","red_circle","0","[""images/Red_Circle.png"",""images/Red_Circle.png"",""images/Red_Circle.png""]","true","[[233,187],[125,0],[16,187]]","false",""
"visual-search-circle","27","2.2.0","71889","78845","visual_search_trial","764","","j","","","","","","","","","","null","blue_triangle","0","[""images/Blue_Triangle.png"",""images/Blue_Triangle.png"",""images/Blue_Triangle.png"",""images/Blue_Triangle.png"",""images/Blue_Triangle.png"",""images/Blue_Triangle.png"",""images/Blue_Triangle.png"",""images/Blue_Triangle.png"",""images/Blue_Triangle.png""]","true","[[247,99],[201,26],[120,0],[41,32],[1,107],[18,191],[86,243],[171,240],[235,183]]","false",""
"visual-search-circle","28","2.2.0","73950","78845","visual_search_trial","557","","f","","","","","","","","","","null","red_circle","0","[""images/Red_Triangle.png"",""images/Red_Circle.png"",""images/Red_Circle.png"",""images/Red_Circle.png"",""images/Red_Circle.png"",""images/Red_Circle.png""]","true","[[9,173],[109,249],[224,200],[240,76],[140,0],[25,49]]","true",""
"visual-search-circle","29","2.2.0","76094","78845","visual_search_trial","640","","j","","","","","","","","","","null","blue_triangle","0","[""images/Blue_Triangle.png"",""images/Blue_Triangle.png"",""images/Blue_Triangle.png"",""images/Blue_Triangle.png"",""images/Blue_Triangle.png"",""images/Blue_Triangle.png""]","true","[[177,238],[249,135],[196,22],[72,11],[0,114],[53,227]]","false",""
"visual-search-circle","30","2.2.0","78242","78845","visual_search_trial","644","","f","","","","","","","","","","null","red_circle","0","[""images/Red_Triangle.png"",""images/Red_Circle.png"",""images/Red_Circle.png"",""images/Red_Circle.png"",""images/Red_Circle.png"",""images/Red_Circle.png"",""images/Red_Circle.png"",""images/Red_Circle.png"",""images/Red_Circle.png""]","true","[[116,249],[198,226],[246,155],[237,70],[175,10],[90,4],[21,55],[0,138],[38,214]]","true",""
"visual-search-circle","31","2.2.0","80205","78845","visual_search_trial","458","","f","","","","","","","","","","null","red_blue_mix","0","[""images/Red_Triangle.png"",""images/Red_Circle.png"",""images/Blue_Circle.png"",""images/Blue_Triangle.png"",""images/Blue_Triangle.png"",""images/Red_Circle.png""]","true","[[114,0],[11,72],[22,196],[135,249],[238,177],[227,53]]","true",""
"visual-search-circle","32","2.2.0","82223","78845","visual_search_trial","515","","j","","","","","","","","","","null","blue_triangle","0","[""images/Blue_Triangle.png"",""images/Blue_Triangle.png"",""images/Blue_Triangle.png""]","true","[[200,25],[0,109],[173,240]]","false",""
"visual-search-circle","33","2.2.0","84320","78845","visual_search_trial","590","","j","","","","","","","","","","null","blue_triangle","1","[""images/Blue_Triangle.png"",""images/Blue_Triangle.png"",""images/Blue_Triangle.png"",""images/Blue_Triangle.png"",""images/Blue_Triangle.png"",""images/Blue_Triangle.png"",""images/Blue_Triangle.png"",""images/Blue_Triangle.png"",""images/Blue_Triangle.png""]","true","[[194,228],[245,159],[239,74],[179,12],[94,3],[23,51],[0,133],[35,211],[111,249]]","false",""
"visual-search-circle","34","2.2.0","86474","78845","visual_search_trial","651","","j","","","","","","","","","","null","red_blue_mix","1","[""images/Blue_Circle.png"",""images/Blue_Triangle.png"",""images/Red_Circle.png""]","true","[[241,169],[105,1],[27,203]]","false",""
"visual-search-circle","35","2.2.0","88472","78845","visual_search_trial","494","","j","","","","","","","","","","null","red_circle","1","[""images/Red_Circle.png"",""images/Red_Circle.png"",""images/Red_Circle.png"",""images/Red_Circle.png"",""images/Red_Circle.png"",""images/Red_Circle.png""]","true","[[249,135],[196,22],[72,11],[0,114],[53,227],[177,238]]","false",""
"visual-search-circle","36","2.2.0","90475","78845","visual_search_trial","498","","j","","","","","","","","","","null","blue_triangle","1","[""images/Blue_Triangle.png"",""images/Blue_Triangle.png"",""images/Blue_Triangle.png"",""images/Blue_Triangle.png"",""images/Blue_Triangle.png"",""images/Blue_Triangle.png""]","true","[[127,0],[17,60],[15,185],[122,249],[232,189],[234,64]]","false",""
"visual-search-circle","37","2.2.0","92565","78845","visual_search_trial","586","","f","","","","","","","","","","null","red_blue_mix","1","[""images/Red_Triangle.png"",""images/Blue_Circle.png"",""images/Blue_Triangle.png""]","true","[[114,0],[22,196],[238,177]]","true",""
"visual-search-circle","38","2.2.0","94532","78845","visual_search_trial","461","","j","","","","","","","","","","null","red_circle","1","[""images/Red_Circle.png"",""images/Red_Circle.png"",""images/Red_Circle.png"",""images/Red_Circle.png"",""images/Red_Circle.png"",""images/Red_Circle.png"",""images/Red_Circle.png"",""images/Red_Circle.png"",""images/Red_Circle.png""]","true","[[18,58],[1,142],[41,217],[120,249],[201,223],[247,150],[235,66],[171,9],[86,6]]","false",""
"visual-search-circle","39","2.2.0","96781","78845","visual_search_trial","744","","j","","","","","","","","","","null","red_blue_mix","1","[""images/Blue_Circle.png"",""images/Red_Circle.png"",""images/Red_Circle.png"",""images/Blue_Triangle.png"",""images/Blue_Circle.png"",""images/Blue_Triangle.png""]","true","[[94,246],[214,211],[245,90],[155,3],[35,38],[4,159]]","false",""
"visual-search-circle","40","2.2.0","98824","78845","visual_search_trial","540","","j","","","","","","","","","","null","blue_triangle","1","[""images/Blue_Triangle.png"",""images/Blue_Triangle.png"",""images/Blue_Triangle.png""]","true","[[239,74],[23,51],[111,249]]","false",""
"visual-search-circle","41","2.2.0","100782","78845","visual_search_trial","454","","f","","","","","","","","","","null","red_blue_mix","1","[""images/Red_Triangle.png"",""images/Blue_Triangle.png"",""images/Blue_Circle.png"",""images/Red_Circle.png"",""images/Red_Circle.png"",""images/Blue_Triangle.png""]","true","[[21,55],[12,179],[116,249],[228,194],[237,70],[133,0]]","true",""
"visual-search-circle","42","2.2.0","102817","78845","visual_search_trial","530","","f","","","","","","","","","","null","red_circle","1","[""images/Red_Triangle.png"",""images/Red_Circle.png"",""images/Red_Circle.png"",""images/Red_Circle.png"",""images/Red_Circle.png"",""images/Red_Circle.png"",""images/Red_Circle.png"",""images/Red_Circle.png"",""images/Red_Circle.png""]","true","[[114,0],[36,36],[0,114],[22,196],[92,245],[177,238],[238,177],[245,92],[196,22]]","true",""
"visual-search-circle","43","2.2.0","104977","78845","visual_search_trial","655","","f","","","","","","","","","","null","red_blue_mix","1","[""images/Red_Triangle.png"",""images/Blue_Circle.png"",""images/Blue_Triangle.png"",""images/Red_Circle.png"",""images/Blue_Circle.png"",""images/Blue_Triangle.png"",""images/Blue_Circle.png"",""images/Blue_Triangle.png"",""images/Blue_Triangle.png""]","true","[[181,13],[96,3],[25,49],[0,131],[33,210],[109,249],[193,229],[244,161],[240,76]]","true",""
"visual-search-circle","44","2.2.0","106975","78845","visual_search_trial","494","","f","","","","","","","","","","null","red_circle","1","[""images/Red_Triangle.png"",""images/Red_Circle.png"",""images/Red_Circle.png""]","true","[[203,27],[1,105],[169,241]]","true",""
"visual-search-circle","45","2.2.0","108919","78845","visual_search_trial","440","","f","","","","","","","","","","null","blue_triangle","1","[""images/Red_Triangle.png"",""images/Blue_Triangle.png"",""images/Blue_Triangle.png""]","true","[[235,66],[18,58],[120,249]]","true",""
"visual-search-circle","46","2.2.0","110983","78845","visual_search_trial","561","","j","","","","","","","","","","null","red_circle","1","[""images/Red_Circle.png"",""images/Red_Circle.png"",""images/Red_Circle.png""]","true","[[55,228],[249,133],[70,12]]","false",""
"visual-search-circle","47","2.2.0","112968","78845","visual_search_trial","480","","f","","","","","","","","","","null","blue_triangle","1","[""images/Red_Triangle.png"",""images/Blue_Triangle.png"",""images/Blue_Triangle.png"",""images/Blue_Triangle.png"",""images/Blue_Triangle.png"",""images/Blue_Triangle.png"",""images/Blue_Triangle.png"",""images/Blue_Triangle.png"",""images/Blue_Triangle.png""]","true","[[223,48],[150,2],[66,14],[9,78],[6,163],[58,231],[142,248],[217,208],[249,129]]","true",""
"visual-search-circle","48","2.2.0","115206","78845","visual_search_trial","733","","j","","","","","","","","","","null","red_blue_mix","1","[""images/Blue_Triangle.png"",""images/Blue_Circle.png"",""images/Blue_Circle.png"",""images/Blue_Triangle.png"",""images/Red_Circle.png"",""images/Blue_Triangle.png"",""images/Blue_Circle.png"",""images/Blue_Circle.png"",""images/Red_Circle.png""]","true","[[2,99],[14,183],[78,240],[163,243],[231,191],[248,107],[208,32],[129,0],[48,26]]","false",""
"visual-search-circle","49","2.2.0","117236","78845","visual_search_trial","526","","f","","","","","","","","","","null","blue_triangle","1","[""images/Red_Triangle.png"",""images/Blue_Triangle.png"",""images/Blue_Triangle.png"",""images/Blue_Triangle.png"",""images/Blue_Triangle.png"",""images/Blue_Triangle.png""]","true","[[231,58],[120,0],[14,66],[18,191],[129,249],[235,183]]","true",""
"visual-search-circle","50","2.2.0","119575","78845","visual_search_trial","835","","f","","","","","","","","","","null","red_circle","1","[""images/Red_Triangle.png"",""images/Red_Circle.png"",""images/Red_Circle.png"",""images/Red_Circle.png"",""images/Red_Circle.png"",""images/Red_Circle.png""]","true","[[56,20],[0,131],[68,236],[193,229],[249,118],[181,13]]","true",""
"html-keyboard-response","51","2.1.0","122748","78845","break","3172","<p>Great job so far! Please rest for a few seconds before continuing.</p>
                 <p>Press the <strong>E</strong> key on your keyboard to continue.</p>","e","","","","","","","","","","","","","","","","","E"
"visual-search-circle","52","2.2.0","125612","78845","visual_search_trial","1361","","f","","","","","","","","","","null","red_blue_mix","2","[""images/Red_Triangle.png"",""images/Red_Circle.png"",""images/Blue_Circle.png""]","true","[[219,42],[6,84],[148,247]]","true",""
"visual-search-circle","53","2.2.0","127719","78845","visual_search_trial","602","","j","","","","","","","","","","null","red_circle","2","[""images/Red_Circle.png"",""images/Red_Circle.png"",""images/Red_Circle.png"",""images/Red_Circle.png"",""images/Red_Circle.png"",""images/Red_Circle.png""]","true","[[68,236],[193,229],[249,118],[181,13],[56,20],[0,131]]","false",""
"visual-search-circle","54","2.2.0","129820","78845","visual_search_trial","598","","j","","","","","","","","","","null","blue_triangle","2","[""images/Blue_Triangle.png"",""images/Blue_Triangle.png"",""images/Blue_Triangle.png""]","true","[[6,163],[217,208],[150,2]]","false",""
"visual-search-circle","55","2.2.0","132224","78845","visual_search_trial","900","","f","","","","","","","","","","null","red_blue_mix","2","[""images/Red_Triangle.png"",""images/Blue_Circle.png"",""images/Blue_Triangle.png"",""images/Red_Circle.png"",""images/Red_Circle.png"",""images/Red_Circle.png""]","true","[[226,198],[239,74],[138,0],[23,51],[10,175],[111,249]]","true",""
"visual-search-circle","56","2.2.0","134306","78845","visual_search_trial","578","","f","","","","","","","","","","null","red_circle","2","[""images/Red_Triangle.png"",""images/Red_Circle.png"",""images/Red_Circle.png"",""images/Red_Circle.png"",""images/Red_Circle.png"",""images/Red_Circle.png"",""images/Red_Circle.png"",""images/Red_Circle.png"",""images/Red_Circle.png""]","true","[[12,70],[3,155],[51,226],[133,249],[211,214],[249,138],[228,55],[159,4],[74,10]]","true",""
"visual-search-circle","57","2.2.0","136369","78845","visual_search_trial","558","","f","","","","","","","","","","null","red_blue_mix","2","[""images/Red_Triangle.png"",""images/Red_Circle.png"",""images/Blue_Circle.png"",""images/Blue_Circle.png"",""images/Red_Circle.png"",""images/Blue_Triangle.png"",""images/Blue_Triangle.png"",""images/Blue_Circle.png"",""images/Blue_Triangle.png""]","true","[[177,11],[92,4],[22,53],[0,135],[36,213],[114,249],[196,227],[245,157],[238,72]]","true",""
"visual-search-circle","58","2.2.0","138420","78845","visual_search_trial","545","","j","","","","","","","","","","null","red_circle","2","[""images/Red_Circle.png"",""images/Red_Circle.png"",""images/Red_Circle.png"",""images/Red_Circle.png"",""images/Red_Circle.png"",""images/Red_Circle.png"",""images/Red_Circle.png"",""images/Red_Circle.png"",""images/Red_Circle.png""]","true","[[33,210],[109,249],[193,229],[244,161],[240,76],[181,13],[96,3],[25,49],[0,131]]","false",""
"visual-search-circle","59","2.2.0","140446","78845","visual_search_trial","522","","f","","","","","","","","","","null","blue_triangle","2","[""images/Red_Triangle.png"",""images/Blue_Triangle.png"",""images/Blue_Triangle.png"",""images/Blue_Triangle.png"",""images/Blue_Triangle.png"",""images/Blue_Triangle.png""]","true","[[14,66],[18,191],[129,249],[235,183],[231,58],[120,0]]","true",""
"visual-search-circle","60","2.2.0","142904","78845","visual_search_trial","954","","j","","","","","","","","","","null","red_blue_mix","2","[""images/Red_Circle.png"",""images/Blue_Triangle.png"",""images/Red_Circle.png""]","true","[[189,17],[0,122],[185,234]]","false",""
"visual-search-circle","61","2.2.0","145021","78845","visual_search_trial","612","","f","","","","","","","","","","null","blue_triangle","2","[""images/Red_Triangle.png"",""images/Blue_Triangle.png"",""images/Blue_Triangle.png"",""images/Blue_Triangle.png"",""images/Blue_Triangle.png"",""images/Blue_Triangle.png"",""images/Blue_Triangle.png"",""images/Blue_Triangle.png"",""images/Blue_Triangle.png""]","true","[[16,187],[82,242],[167,242],[233,187],[248,103],[205,29],[125,0],[44,29],[1,103]]","true",""
"visual-search-circle","62","2.2.0","147068","78845","visual_search_trial","543","","f","","","","","","","","","","null","red_circle","2","[""images/Red_Triangle.png"",""images/Red_Circle.png"",""images/Red_Circle.png"",""images/Red_Circle.png"",""images/Red_Circle.png"",""images/Red_Circle.png""]","true","[[196,227],[249,114],[177,11],[53,22],[0,135],[72,238]]","true",""
"visual-search-circle","63","2.2.0","149050","78845","visual_search_trial","477","","j","","","","","","","","","","null","blue_triangle","2","[""images/Blue_Triangle.png"",""images/Blue_Triangle.png"",""images/Blue_Triangle.png"",""images/Blue_Triangle.png"",""images/Blue_Triangle.png"",""images/Blue_Triangle.png""]","true","[[1,142],[78,240],[201,223],[248,107],[171,9],[48,26]]","false",""
"visual-search-circle","64","2.2.0","151041","78845","visual_search_trial","487","","f","","","","","","","","","","null","red_circle","2","[""images/Red_Triangle.png"",""images/Red_Circle.png"",""images/Red_Circle.png""]","true","[[94,3],[35,211],[245,159]]","true",""
"visual-search-circle","65","2.2.0","153132","78845","visual_search_trial","587","","f","","","","","","","","","","null","blue_triangle","2","[""images/Red_Triangle.png"",""images/Blue_Triangle.png"",""images/Blue_Triangle.png""]","true","[[249,129],[66,14],[58,231]]","true",""
"visual-search-circle","66","2.2.0","155584","78845","visual_search_trial","947","","j","","","","","","","","","","null","red_blue_mix","2","[""images/Red_Circle.png"",""images/Blue_Triangle.png"",""images/Blue_Circle.png"",""images/Red_Circle.png"",""images/Blue_Triangle.png"",""images/Red_Circle.png"",""images/Blue_Circle.png"",""images/Blue_Circle.png"",""images/Blue_Circle.png""]","true","[[9,76],[5,161],[56,229],[140,249],[216,210],[249,131],[224,49],[153,3],[68,13]]","false",""
"visual-search-circle","67","2.2.0","157710","78845","visual_search_trial","621","","j","","","","","","","","","","null","blue_triangle","2","[""images/Blue_Triangle.png"",""images/Blue_Triangle.png"",""images/Blue_Triangle.png"",""images/Blue_Triangle.png"",""images/Blue_Triangle.png"",""images/Blue_Triangle.png"",""images/Blue_Triangle.png"",""images/Blue_Triangle.png"",""images/Blue_Triangle.png""]","true","[[5,88],[9,173],[68,236],[153,246],[224,200],[249,118],[216,39],[140,0],[56,20]]","false",""
"visual-search-circle","68","2.2.0","159794","78845","visual_search_trial","581","","j","","","","","","","","","","null","red_circle","2","[""images/Red_Circle.png"",""images/Red_Circle.png"",""images/Red_Circle.png""]","true","[[219,42],[6,84],[148,247]]","false",""
"visual-search-circle","69","2.2.0","161981","78845","visual_search_trial","683","","j","","","","","","","","","","null","red_blue_mix","2","[""images/Blue_Triangle.png"",""images/Blue_Circle.png"",""images/Red_Circle.png"",""images/Blue_Triangle.png"",""images/Blue_Triangle.png"",""images/Blue_Circle.png""]","true","[[189,232],[249,122],[185,15],[60,17],[0,127],[64,234]]","false",""
"visual-search-circle","70","2.2.0","164104","78845","visual_search_trial","620","","j","","","","","","","","","","null","red_blue_mix","3","[""images/Red_Circle.png"",""images/Blue_Circle.png"",""images/Blue_Triangle.png""]","true","[[150,2],[6,163],[217,208]]","false",""
"visual-search-circle","71","2.2.0","166220","78845","visual_search_trial","613","","f","","","","","","","","","","null","red_circle","3","[""images/Red_Triangle.png"",""images/Red_Circle.png"",""images/Red_Circle.png"",""images/Red_Circle.png"",""images/Red_Circle.png"",""images/Red_Circle.png""]","true","[[74,239],[198,226],[249,111],[175,10],[51,23],[0,138]]","true",""
"visual-search-circle","72","2.2.0","168208","78845","visual_search_trial","484","","j","","","","","","","","","","null","blue_triangle","3","[""images/Blue_Triangle.png"",""images/Blue_Triangle.png"",""images/Blue_Triangle.png"",""images/Blue_Triangle.png"",""images/Blue_Triangle.png"",""images/Blue_Triangle.png""]","true","[[243,163],[217,41],[99,2],[6,86],[32,208],[150,247]]","false",""
"visual-search-circle","73","2.2.0","170538","78845","visual_search_trial","824","","f","","","","","","","","","","null","red_blue_mix","3","[""images/Red_Triangle.png"",""images/Blue_Triangle.png"",""images/Red_Circle.png"",""images/Blue_Triangle.png"",""images/Blue_Circle.png"",""images/Blue_Triangle.png"",""images/Blue_Circle.png"",""images/Blue_Circle.png"",""images/Red_Circle.png""]","true","[[235,66],[171,9],[86,6],[18,58],[1,142],[41,217],[120,249],[201,223],[247,150]]","true",""
"visual-search-circle","74","2.2.0","172672","78845","visual_search_trial","632","","j","","","","","","","","","","null","red_circle","3","[""images/Red_Circle.png"",""images/Red_Circle.png"",""images/Red_Circle.png""]","true","[[211,35],[3,94],[159,245]]","false",""
"visual-search-circle","75","2.2.0","174770","78845","visual_search_trial","592","","j","","","","","","","","","","null","blue_triangle","3","[""images/Blue_Triangle.png"",""images/Blue_Triangle.png"",""images/Blue_Triangle.png"",""images/Blue_Triangle.png"",""images/Blue_Triangle.png"",""images/Blue_Triangle.png"",""images/Blue_Triangle.png"",""images/Blue_Triangle.png"",""images/Blue_Triangle.png""]","true","[[111,249],[194,228],[245,159],[239,74],[179,12],[94,3],[23,51],[0,133],[35,211]]","false",""
"visual-search-circle","76","2.2.0","177455","78845","visual_search_trial","1183","","f","","","","","","","","","","null","red_circle","3","[""images/Red_Triangle.png"",""images/Red_Circle.png"",""images/Red_Circle.png""]","true","[[35,38],[94,246],[245,90]]","true",""
"visual-search-circle","77","2.2.0","179509","78845","visual_search_trial","550","","f","","","","","","","","","","null","blue_triangle","3","[""images/Red_Triangle.png"",""images/Blue_Triangle.png"",""images/Blue_Triangle.png"",""images/Blue_Triangle.png"",""images/Blue_Triangle.png"",""images/Blue_Triangle.png""]","true","[[33,210],[153,246],[244,161],[216,39],[96,3],[5,88]]","true",""
"visual-search-circle","78","2.2.0","181751","78845","visual_search_trial","737","","j","","","","","","","","","","null","red_blue_mix","3","[""images/Blue_Circle.png"",""images/Red_Circle.png"",""images/Blue_Triangle.png"",""images/Blue_Circle.png"",""images/Blue_Triangle.png"",""images/Red_Circle.png""]","true","[[42,30],[2,148],[84,243],[207,219],[247,101],[165,6]]","false",""
"visual-search-circle","79","2.2.0","183902","78845","visual_search_trial","646","","f","","","","","","","","","","null","red_circle","3","[""images/Red_Triangle.png"",""images/Red_Circle.png"",""images/Red_Circle.png"",""images/Red_Circle.png"",""images/Red_Circle.png"",""images/Red_Circle.png"",""images/Red_Circle.png"",""images/Red_Circle.png"",""images/Red_Circle.png""]","true","[[0,116],[23,198],[94,246],[179,237],[239,175],[245,90],[194,21],[111,0],[35,38]]","true",""
"visual-search-circle","80","2.2.0","185892","78845","visual_search_trial","485","","f","","","","","","","","","","null","red_blue_mix","3","[""images/Red_Triangle.png"",""images/Blue_Circle.png"",""images/Red_Circle.png""]","true","[[68,236],[249,118],[56,20]]","true",""
"visual-search-circle","81","2.2.0","188400","78845","visual_search_trial","1004","","f","","","","","","","","","","null","blue_triangle","3","[""images/Red_Triangle.png"",""images/Blue_Triangle.png"",""images/Blue_Triangle.png""]","true","[[74,10],[51,226],[249,138]]","true",""
"visual-search-circle","82","2.2.0","190390","78845","visual_search_trial","485","","j","","","","","","","","","","null","red_circle","3","[""images/Red_Circle.png"",""images/Red_Circle.png"",""images/Red_Circle.png"",""images/Red_Circle.png"",""images/Red_Circle.png"",""images/Red_Circle.png""]","true","[[208,32],[86,6],[2,99],[41,217],[163,243],[247,150]]","false",""
"visual-search-circle","83","2.2.0","192748","78845","visual_search_trial","853","","j","","","","","","","","","","null","red_blue_mix","3","[""images/Blue_Circle.png"",""images/Red_Circle.png"",""images/Blue_Triangle.png"",""images/Blue_Triangle.png"",""images/Blue_Triangle.png"",""images/Blue_Triangle.png"",""images/Blue_Triangle.png"",""images/Blue_Circle.png"",""images/Blue_Circle.png""]","true","[[146,248],[220,205],[250,125],[220,44],[146,1],[62,16],[7,82],[7,167],[62,233]]","false",""
"visual-search-circle","84","2.2.0","194890","78845","visual_search_trial","636","","j","","","","","","","","","","null","red_circle","3","[""images/Red_Circle.png"",""images/Red_Circle.png"",""images/Red_Circle.png"",""images/Red_Circle.png"",""images/Red_Circle.png"",""images/Red_Circle.png"",""images/Red_Circle.png"",""images/Red_Circle.png"",""images/Red_Circle.png""]","true","[[64,15],[8,80],[6,165],[60,232],[144,248],[219,207],[249,127],[222,46],[148,2]]","false",""
"visual-search-circle","85","2.2.0","198090","78845","visual_search_trial","1696","","j","","","","","","","","","","null","blue_triangle","3","[""images/Blue_Triangle.png"",""images/Blue_Triangle.png"",""images/Blue_Triangle.png""]","true","[[118,249],[236,68],[20,56]]","false",""
"visual-search-circle","86","2.2.0","201360","78845","visual_search_trial","1765","","f","","","","","","","","","","null","red_blue_mix","3","[""images/Red_Triangle.png"",""images/Blue_Triangle.png"",""images/Blue_Circle.png"",""images/Red_Circle.png"",""images/Blue_Triangle.png"",""images/Blue_Circle.png""]","true","[[247,148],[207,30],[84,6],[2,101],[42,219],[165,243]]","true",""
"visual-search-circle","87","2.2.0","203587","78845","visual_search_trial","721","","f","","","","","","","","","","null","blue_triangle","3","[""images/Red_Triangle.png"",""images/Blue_Triangle.png"",""images/Blue_Triangle.png"",""images/Blue_Triangle.png"",""images/Blue_Triangle.png"",""images/Blue_Triangle.png"",""images/Blue_Triangle.png"",""images/Blue_Triangle.png"",""images/Blue_Triangle.png""]","true","[[44,220],[125,250],[205,220],[248,146],[233,62],[167,7],[82,7],[16,62],[1,146]]","true",""
"html-keyboard-response","88","2.1.0","205846","78845","break","2257","<p>Great job so far! Please rest for a few seconds before continuing.</p>
                 <p>Press the <strong>M</strong> key on your keyboard to continue.</p>","m","","","","","","","","","","","","","","","","","M"
"visual-search-circle","89","2.2.0","207939","78845","visual_search_trial","588","","f","","","","","","","","","","null","blue_triangle","4","[""images/Red_Triangle.png"",""images/Blue_Triangle.png"",""images/Blue_Triangle.png"",""images/Blue_Triangle.png"",""images/Blue_Triangle.png"",""images/Blue_Triangle.png"",""images/Blue_Triangle.png"",""images/Blue_Triangle.png"",""images/Blue_Triangle.png""]","true","[[217,41],[142,1],[58,18],[6,86],[9,171],[66,235],[150,247],[223,201],[249,120]]","true",""
"visual-search-circle","90","2.2.0","209921","78845","visual_search_trial","479","","j","","","","","","","","","","null","red_circle","4","[""images/Red_Circle.png"",""images/Red_Circle.png"",""images/Red_Circle.png""]","true","[[107,248],[240,78],[26,48]]","false",""
"visual-search-circle","91","2.2.0","211945","78845","visual_search_trial","521","","f","","","","","","","","","","null","blue_triangle","4","[""images/Red_Triangle.png"",""images/Blue_Triangle.png"",""images/Blue_Triangle.png"",""images/Blue_Triangle.png"",""images/Blue_Triangle.png"",""images/Blue_Triangle.png""]","true","[[1,142],[78,240],[201,223],[248,107],[171,9],[48,26]]","true",""
"visual-search-circle","92","2.2.0","214109","78845","visual_search_trial","660","","f","","","","","","","","","","null","red_circle","4","[""images/Red_Triangle.png"",""images/Red_Circle.png"",""images/Red_Circle.png"",""images/Red_Circle.png"",""images/Red_Circle.png"",""images/Red_Circle.png""]","true","[[239,175],[226,51],[111,0],[10,74],[23,198],[138,249]]","true",""
"visual-search-circle","93","2.2.0","216152","78845","visual_search_trial","537","","j","","","","","","","","","","null","blue_triangle","4","[""images/Blue_Triangle.png"",""images/Blue_Triangle.png"",""images/Blue_Triangle.png"",""images/Blue_Triangle.png"",""images/Blue_Triangle.png"",""images/Blue_Triangle.png"",""images/Blue_Triangle.png"",""images/Blue_Triangle.png"",""images/Blue_Triangle.png""]","true","[[169,8],[84,6],[17,60],[1,144],[42,219],[122,249],[203,222],[247,148],[234,64]]","false",""
"visual-search-circle","94","2.2.0","219559","78845","visual_search_trial","1905","","f","","","","","","","","","","null","red_circle","4","[""images/Red_Triangle.png"",""images/Red_Circle.png"",""images/Red_Circle.png""]","true","[[66,235],[249,120],[58,18]]","true",""
"visual-search-circle","95","2.2.0","221637","78845","visual_search_trial","575","","f","","","","","","","","","","null","blue_triangle","4","[""images/Red_Triangle.png"",""images/Blue_Triangle.png"",""images/Blue_Triangle.png""]","true","[[247,101],[42,30],[84,243]]","true",""
"visual-search-circle","96","2.2.0","223977","78845","visual_search_trial","834","","f","","","","","","","","","","null","red_blue_mix","4","[""images/Red_Triangle.png"",""images/Red_Circle.png"",""images/Red_Circle.png"",""images/Red_Circle.png"",""images/Blue_Circle.png"",""images/Blue_Triangle.png"",""images/Blue_Triangle.png"",""images/Red_Circle.png"",""images/Red_Circle.png""]","true","[[244,161],[240,76],[181,13],[96,3],[25,49],[0,131],[33,210],[109,249],[193,229]]","true",""
"visual-search-circle","97","2.2.0","226312","78845","visual_search_trial","831","","j","","","","","","","","","","null","blue_triangle","4","[""images/Blue_Triangle.png"",""images/Blue_Triangle.png"",""images/Blue_Triangle.png"",""images/Blue_Triangle.png"",""images/Blue_Triangle.png"",""images/Blue_Triangle.png""]","true","[[80,241],[203,222],[248,105],[169,8],[46,27],[1,144]]","false",""
"visual-search-circle","98","2.2.0","229417","78845","visual_search_trial","1599","","j","","","","","","","","","","null","red_blue_mix","4","[""images/Red_Circle.png"",""images/Blue_Circle.png"",""images/Blue_Circle.png"",""images/Blue_Circle.png"",""images/Red_Circle.png"",""images/Red_Circle.png"",""images/Blue_Circle.png"",""images/Blue_Triangle.png"",""images/Blue_Triangle.png""]","true","[[42,219],[122,249],[203,222],[247,148],[234,64],[169,8],[84,6],[17,60],[1,144]]","false",""
"visual-search-circle","99","2.2.0","231562","78845","visual_search_trial","640","","f","","","","","","","","","","null","red_circle","4","[""images/Red_Triangle.png"",""images/Red_Circle.png"",""images/Red_Circle.png"",""images/Red_Circle.png"",""images/Red_Circle.png"",""images/Red_Circle.png"",""images/Red_Circle.png"",""images/Red_Circle.png"",""images/Red_Circle.png""]","true","[[150,2],[66,14],[9,78],[6,163],[58,231],[142,248],[217,208],[249,129],[223,48]]","true",""
"visual-search-circle","100","2.2.0","233793","78845","visual_search_trial","727","","f","","","","","","","","","","null","red_blue_mix","4","[""images/Red_Triangle.png"",""images/Red_Circle.png"",""images/Red_Circle.png""]","true","[[179,12],[0,133],[194,228]]","true",""
"visual-search-circle","101","2.2.0","235839","78845","visual_search_trial","540","","j","","","","","","","","","","null","red_circle","4","[""images/Red_Circle.png"",""images/Red_Circle.png"",""images/Red_Circle.png"",""images/Red_Circle.png"",""images/Red_Circle.png"",""images/Red_Circle.png"",""images/Red_Circle.png"",""images/Red_Circle.png"",""images/Red_Circle.png""]","true","[[0,116],[23,198],[94,246],[179,237],[239,175],[245,90],[194,21],[111,0],[35,38]]","false",""
"visual-search-circle","102","2.2.0","238017","78845","visual_search_trial","674","","j","","","","","","","","","","null","red_blue_mix","4","[""images/Blue_Circle.png"",""images/Blue_Triangle.png"",""images/Red_Circle.png"",""images/Blue_Circle.png"",""images/Blue_Circle.png"",""images/Red_Circle.png""]","true","[[114,0],[11,72],[22,196],[135,249],[238,177],[227,53]]","false",""
"visual-search-circle","103","2.2.0","240147","78845","visual_search_trial","626","","j","","","","","","","","","","null","red_circle","4","[""images/Red_Circle.png"",""images/Red_Circle.png"",""images/Red_Circle.png"",""images/Red_Circle.png"",""images/Red_Circle.png"",""images/Red_Circle.png""]","true","[[35,211],[155,246],[245,159],[214,38],[94,3],[4,90]]","false",""
"visual-search-circle","104","2.2.0","242312","78845","visual_search_trial","661","","j","","","","","","","","","","null","red_blue_mix","4","[""images/Blue_Triangle.png"",""images/Blue_Circle.png"",""images/Blue_Circle.png""]","true","[[84,6],[42,219],[247,148]]","false",""
"visual-search-circle","105","2.2.0","244340","78845","visual_search_trial","525","","j","","","","","","","","","","null","blue_triangle","4","[""images/Blue_Triangle.png"",""images/Blue_Triangle.png"",""images/Blue_Triangle.png""]","true","[[213,213],[157,4],[4,157]]","false",""
"visual-search-circle","106","2.2.0","246482","78845","visual_search_trial","638","","f","","","","","","","","","","null","red_blue_mix","4","[""images/Red_Triangle.png"",""images/Blue_Triangle.png"",""images/Blue_Circle.png"",""images/Blue_Triangle.png"",""images/Blue_Circle.png"",""images/Blue_Triangle.png""]","true","[[118,249],[229,193],[236,68],[131,0],[20,56],[13,181]]","true",""
"visual-search-circle","107","2.2.0","248624","78845","visual_search_trial","639","","f","","","","","","","","","","null","red_circle","5","[""images/Red_Triangle.png"",""images/Red_Circle.png"",""images/Red_Circle.png""]","true","[[7,82],[146,248],[220,44]]","true",""
"visual-search-circle","108","2.2.0","250934","78845","visual_search_trial","806","","j","","","","","","","","","","null","red_blue_mix","5","[""images/Red_Circle.png"",""images/Red_Circle.png"",""images/Blue_Triangle.png"",""images/Red_Circle.png"",""images/Blue_Triangle.png"",""images/Blue_Circle.png"",""images/Red_Circle.png"",""images/Blue_Circle.png"",""images/Blue_Circle.png""]","true","[[246,96],[200,25],[118,0],[39,33],[0,109],[20,193],[88,244],[173,240],[236,181]]","false",""
"visual-search-circle","109","2.2.0","253010","78845","visual_search_trial","570","","f","","","","","","","","","","null","red_circle","5","[""images/Red_Triangle.png"",""images/Red_Circle.png"",""images/Red_Circle.png"",""images/Red_Circle.png"",""images/Red_Circle.png"",""images/Red_Circle.png"",""images/Red_Circle.png"",""images/Red_Circle.png"",""images/Red_Circle.png""]","true","[[133,0],[51,23],[3,94],[12,179],[74,239],[159,245],[228,194],[249,111],[211,35]]","true",""
"visual-search-circle","110","2.2.0","255119","78845","visual_search_trial","605","","f","","","","","","","","","","null","blue_triangle","5","[""images/Red_Triangle.png"",""images/Blue_Triangle.png"",""images/Blue_Triangle.png"",""images/Blue_Triangle.png"",""images/Blue_Triangle.png"",""images/Blue_Triangle.png""]","true","[[198,23],[74,10],[0,111],[51,226],[175,239],[249,138]]","true",""
"visual-search-circle","111","2.2.0","257267","78845","visual_search_trial","643","","f","","","","","","","","","","null","red_blue_mix","5","[""images/Red_Triangle.png"",""images/Red_Circle.png"",""images/Blue_Circle.png"",""images/Blue_Circle.png"",""images/Blue_Triangle.png"",""images/Red_Circle.png"",""images/Blue_Triangle.png"",""images/Red_Circle.png"",""images/Blue_Circle.png""]","true","[[203,27],[122,0],[42,30],[1,105],[17,189],[84,243],[169,241],[234,185],[247,101]]","true",""
"visual-search-circle","112","2.2.0","259312","78845","visual_search_trial","540","","f","","","","","","","","","","null","blue_triangle","5","[""images/Red_Triangle.png"",""images/Blue_Triangle.png"",""images/Blue_Triangle.png"",""images/Blue_Triangle.png"",""images/Blue_Triangle.png"",""images/Blue_Triangle.png"",""images/Blue_Triangle.png"",""images/Blue_Triangle.png"",""images/Blue_Triangle.png""]","true","[[231,191],[248,107],[208,32],[129,0],[48,26],[2,99],[14,183],[78,240],[163,243]]","true",""
"visual-search-circle","113","2.2.0","261339","78845","visual_search_trial","524","","j","","","","","","","","","","null","red_circle","5","[""images/Red_Circle.png"",""images/Red_Circle.png"",""images/Red_Circle.png"",""images/Red_Circle.png"",""images/Red_Circle.png"",""images/Red_Circle.png""]","true","[[191,231],[249,120],[183,14],[58,18],[0,129],[66,235]]","false",""
"visual-search-circle","114","2.2.0","263415","78845","visual_search_trial","573","","f","","","","","","","","","","null","red_blue_mix","5","[""images/Red_Triangle.png"",""images/Blue_Circle.png"",""images/Blue_Circle.png""]","true","[[203,222],[169,8],[1,144]]","true",""
"visual-search-circle","115","2.2.0","265379","78845","visual_search_trial","460","","j","","","","","","","","","","null","red_circle","5","[""images/Red_Circle.png"",""images/Red_Circle.png"",""images/Red_Circle.png""]","true","[[29,44],[103,248],[242,82]]","false",""
"visual-search-circle","116","2.2.0","267417","78845","visual_search_trial","534","","j","","","","","","","","","","null","red_blue_mix","5","[""images/Blue_Circle.png"",""images/Blue_Triangle.png"",""images/Blue_Triangle.png""]","true","[[1,103],[167,242],[205,29]]","false",""
"visual-search-circle","117","2.2.0","269436","78845","visual_search_trial","514","","f","","","","","","","","","","null","red_circle","5","[""images/Red_Triangle.png"",""images/Red_Circle.png"",""images/Red_Circle.png"",""images/Red_Circle.png"",""images/Red_Circle.png"",""images/Red_Circle.png""]","true","[[2,99],[41,217],[163,243],[247,150],[208,32],[86,6]]","true",""
"visual-search-circle","118","2.2.0","271715","78845","visual_search_trial","776","","f","","","","","","","","","","null","blue_triangle","5","[""images/Red_Triangle.png"",""images/Blue_Triangle.png"",""images/Blue_Triangle.png""]","true","[[70,237],[249,116],[55,21]]","true",""
"visual-search-circle","119","2.2.0","273844","78845","visual_search_trial","624","","j","","","","","","","","","","null","red_blue_mix","5","[""images/Blue_Circle.png"",""images/Red_Circle.png"",""images/Blue_Circle.png"",""images/Red_Circle.png"",""images/Blue_Triangle.png"",""images/Blue_Circle.png""]","true","[[125,250],[233,187],[233,62],[125,0],[16,62],[16,187]]","false",""
"visual-search-circle","120","2.2.0","275851","78845","visual_search_trial","501","","j","","","","","","","","","","null","blue_triangle","5","[""images/Blue_Triangle.png"",""images/Blue_Triangle.png"",""images/Blue_Triangle.png"",""images/Blue_Triangle.png"",""images/Blue_Triangle.png"",""images/Blue_Triangle.png"",""images/Blue_Triangle.png"",""images/Blue_Triangle.png"",""images/Blue_Triangle.png""]","true","[[240,171],[243,86],[191,18],[107,1],[32,41],[0,120],[26,201],[99,247],[183,235]]","false",""
"visual-search-circle","121","2.2.0","278309","78845","visual_search_trial","953","","f","","","","","","","","","","null","red_blue_mix","5","[""images/Red_Triangle.png"",""images/Blue_Circle.png"",""images/Red_Circle.png"",""images/Red_Circle.png"",""images/Blue_Triangle.png"",""images/Blue_Circle.png""]","true","[[219,207],[243,84],[148,2],[30,42],[6,165],[101,247]]","true",""
"visual-search-circle","122","2.2.0","280377","78845","visual_search_trial","565","","j","","","","","","","","","","null","blue_triangle","5","[""images/Blue_Triangle.png"",""images/Blue_Triangle.png"",""images/Blue_Triangle.png"",""images/Blue_Triangle.png"",""images/Blue_Triangle.png"",""images/Blue_Triangle.png""]","true","[[237,179],[228,55],[116,0],[12,70],[21,194],[133,249]]","false",""
"visual-search-circle","123","2.2.0","282470","78845","visual_search_trial","588","","j","","","","","","","","","","null","red_circle","5","[""images/Red_Circle.png"",""images/Red_Circle.png"",""images/Red_Circle.png"",""images/Red_Circle.png"",""images/Red_Circle.png"",""images/Red_Circle.png"",""images/Red_Circle.png"",""images/Red_Circle.png"",""images/Red_Circle.png""]","true","[[224,49],[153,3],[68,13],[9,76],[5,161],[56,229],[140,249],[216,210],[249,131]]","false",""
"visual-search-circle","124","2.2.0","284684","78845","visual_search_trial","711","","j","","","","","","","","","","null","blue_triangle","5","[""images/Blue_Triangle.png"",""images/Blue_Triangle.png"",""images/Blue_Triangle.png""]","true","[[5,161],[216,210],[153,3]]","false",""
"html-keyboard-response","125","2.1.0","288833","78845","break","4148","<p>Great job so far! Please rest for a few seconds before continuing.</p>
                 <p>Press the <strong>R</strong> key on your keyboard to continue.</p>","r","","","","","","","","","","","","","","","","","R"
"visual-search-circle","126","2.2.0","292245","78845","visual_search_trial","1907","","j","","","","","","","","","","null","red_blue_mix","6","[""images/Blue_Triangle.png"",""images/Red_Circle.png"",""images/Blue_Triangle.png"",""images/Red_Circle.png"",""images/Red_Circle.png"",""images/Blue_Triangle.png"",""images/Blue_Circle.png"",""images/Blue_Circle.png"",""images/Blue_Triangle.png""]","true","[[3,155],[51,226],[133,249],[211,214],[249,138],[228,55],[159,4],[74,10],[12,70]]","false",""
"visual-search-circle","127","2.2.0","294391","78845","visual_search_trial","641","","f","","","","","","","","","","null","red_circle","6","[""images/Red_Triangle.png"",""images/Red_Circle.png"",""images/Red_Circle.png"",""images/Red_Circle.png"",""images/Red_Circle.png"",""images/Red_Circle.png"",""images/Red_Circle.png"",""images/Red_Circle.png"",""images/Red_Circle.png""]","true","[[146,1],[62,16],[7,82],[7,167],[62,233],[146,248],[220,205],[250,125],[220,44]]","true",""
"visual-search-circle","128","2.2.0","296467","78845","visual_search_trial","572","","j","","","","","","","","","","null","blue_triangle","6","[""images/Blue_Triangle.png"",""images/Blue_Triangle.png"",""images/Blue_Triangle.png""]","true","[[140,249],[224,49],[9,76]]","false",""
"visual-search-circle","129","2.2.0","298610","78845","visual_search_trial","640","","f","","","","","","","","","","null","red_blue_mix","6","[""images/Red_Triangle.png"",""images/Blue_Circle.png"",""images/Blue_Triangle.png""]","true","[[247,150],[86,6],[41,217]]","true",""
"visual-search-circle","130","2.2.0","300613","78845","visual_search_trial","498","","j","","","","","","","","","","null","blue_triangle","6","[""images/Blue_Triangle.png"",""images/Blue_Triangle.png"",""images/Blue_Triangle.png"",""images/Blue_Triangle.png"",""images/Blue_Triangle.png"",""images/Blue_Triangle.png"",""images/Blue_Triangle.png"",""images/Blue_Triangle.png"",""images/Blue_Triangle.png""]","true","[[18,191],[86,243],[171,240],[235,183],[247,99],[201,26],[120,0],[41,32],[1,107]]","false",""
"visual-search-circle","131","2.2.0","303213","78845","visual_search_trial","1096","","f","","","","","","","","","","null","red_blue_mix","6","[""images/Red_Triangle.png"",""images/Blue_Circle.png"",""images/Blue_Triangle.png"",""images/Red_Circle.png"",""images/Red_Circle.png"",""images/Blue_Circle.png""]","true","[[135,0],[22,53],[11,177],[114,249],[227,196],[238,72]]","true",""
"visual-search-circle","132","2.2.0","305213","78845","visual_search_trial","494","","j","","","","","","","","","","null","red_circle","6","[""images/Red_Circle.png"",""images/Red_Circle.png"",""images/Red_Circle.png"",""images/Red_Circle.png"",""images/Red_Circle.png"",""images/Red_Circle.png"",""images/Red_Circle.png"",""images/Red_Circle.png"",""images/Red_Circle.png""]","true","[[51,226],[133,249],[211,214],[249,138],[228,55],[159,4],[74,10],[12,70],[3,155]]","false",""
"visual-search-circle","133","2.2.0","307426","78845","visual_search_trial","707","","f","","","","","","","","","","null","red_blue_mix","6","[""images/Red_Triangle.png"",""images/Blue_Triangle.png"",""images/Blue_Triangle.png"",""images/Red_Circle.png"",""images/Blue_Circle.png"",""images/Red_Circle.png"",""images/Blue_Circle.png"",""images/Blue_Circle.png"",""images/Red_Circle.png""]","true","[[185,15],[101,2],[27,46],[0,127],[30,207],[105,248],[189,232],[243,165],[241,80]]","true",""
"visual-search-circle","134","2.2.0","309592","78845","visual_search_trial","662","","f","","","","","","","","","","null","red_circle","6","[""images/Red_Triangle.png"",""images/Red_Circle.png"",""images/Red_Circle.png"",""images/Red_Circle.png"",""images/Red_Circle.png"",""images/Red_Circle.png""]","true","[[20,56],[13,181],[118,249],[229,193],[236,68],[131,0]]","true",""
"visual-search-circle","135","2.2.0","311808","78845","visual_search_trial","711","","j","","","","","","","","","","null","red_blue_mix","6","[""images/Blue_Circle.png"",""images/Red_Circle.png"",""images/Red_Circle.png"",""images/Blue_Triangle.png"",""images/Blue_Circle.png"",""images/Blue_Triangle.png""]","true","[[35,38],[4,159],[94,246],[214,211],[245,90],[155,3]]","false",""
"visual-search-circle","136","2.2.0","313779","78845","visual_search_trial","467","","j","","","","","","","","","","null","blue_triangle","6","[""images/Blue_Triangle.png"",""images/Blue_Triangle.png"",""images/Blue_Triangle.png"",""images/Blue_Triangle.png"",""images/Blue_Triangle.png"",""images/Blue_Triangle.png""]","true","[[3,94],[38,214],[159,245],[246,155],[211,35],[90,4]]","false",""
"visual-search-circle","137","2.2.0","315889","78845","visual_search_trial","607","","j","","","","","","","","","","null","red_circle","6","[""images/Red_Circle.png"",""images/Red_Circle.png"",""images/Red_Circle.png""]","true","[[213,36],[4,92],[157,245]]","false",""
"visual-search-circle","138","2.2.0","318001","78845","visual_search_trial","608","","f","","","","","","","","","","null","blue_triangle","6","[""images/Red_Triangle.png"",""images/Blue_Triangle.png"",""images/Blue_Triangle.png"",""images/Blue_Triangle.png"",""images/Blue_Triangle.png"",""images/Blue_Triangle.png""]","true","[[56,20],[0,131],[68,236],[193,229],[249,118],[181,13]]","true",""
"visual-search-circle","139","2.2.0","320048","78845","visual_search_trial","542","","j","","","","","","","","","","null","red_circle","6","[""images/Red_Circle.png"",""images/Red_Circle.png"",""images/Red_Circle.png"",""images/Red_Circle.png"",""images/Red_Circle.png"",""images/Red_Circle.png""]","true","[[10,74],[23,198],[138,249],[239,175],[226,51],[111,0]]","false",""
"visual-search-circle","140","2.2.0","460339","78845","visual_search_trial","138788","","j","","","","","","","","","","null","red_blue_mix","6","[""images/Blue_Circle.png"",""images/Red_Circle.png"",""images/Blue_Circle.png""]","true","[[80,8],[46,222],[248,144]]","false",""
"visual-search-circle","141","2.2.0","463196","78845","visual_search_trial","1352","","f","","","","","","","","","","null","blue_triangle","6","[""images/Red_Triangle.png"",""images/Blue_Triangle.png"",""images/Blue_Triangle.png"",""images/Blue_Triangle.png"",""images/Blue_Triangle.png"",""images/Blue_Triangle.png"",""images/Blue_Triangle.png"",""images/Blue_Triangle.png"",""images/Blue_Triangle.png""]","true","[[14,66],[2,150],[48,223],[129,249],[208,217],[248,142],[231,58],[163,6],[78,9]]","true",""
"visual-search-circle","142","2.2.0","465765","78845","visual_search_trial","1065","","f","","","","","","","","","","null","red_circle","6","[""images/Red_Triangle.png"",""images/Red_Circle.png"",""images/Red_Circle.png""]","true","[[14,66],[129,249],[231,58]]","true",""
"visual-search-circle","143","2.2.0","468412","78845","visual_search_trial","1143","","f","","","","","","","","","","null","blue_triangle","6","[""images/Red_Triangle.png"",""images/Blue_Triangle.png"",""images/Blue_Triangle.png""]","true","[[243,84],[30,42],[101,247]]","true",""
"visual-search-circle","144","2.2.0","470993","78845","visual_search_trial","1077","","j","","","","","","","","","","null","blue_triangle","7","[""images/Blue_Triangle.png"",""images/Blue_Triangle.png"",""images/Blue_Triangle.png"",""images/Blue_Triangle.png"",""images/Blue_Triangle.png"",""images/Blue_Triangle.png""]","true","[[96,246],[216,210],[244,88],[153,3],[33,39],[5,161]]","false",""
"visual-search-circle","145","2.2.0","473321","78845","visual_search_trial","824","","f","","","","","","","","","","null","red_circle","7","[""images/Red_Triangle.png"",""images/Red_Circle.png"",""images/Red_Circle.png"",""images/Red_Circle.png"",""images/Red_Circle.png"",""images/Red_Circle.png""]","true","[[2,150],[86,243],[208,217],[247,99],[163,6],[41,32]]","true",""
"visual-search-circle","146","2.2.0","475775","78845","visual_search_trial","950","","f","","","","","","","","","","null","red_blue_mix","7","[""images/Red_Triangle.png"",""images/Blue_Circle.png"",""images/Blue_Circle.png"",""images/Blue_Triangle.png"",""images/Blue_Circle.png"",""images/Red_Circle.png""]","true","[[248,105],[169,8],[46,27],[1,144],[80,241],[203,222]]","true",""
"visual-search-circle","147","2.2.0","478200","78845","visual_search_trial","922","","f","","","","","","","","","","null","blue_triangle","7","[""images/Red_Triangle.png"",""images/Blue_Triangle.png"",""images/Blue_Triangle.png""]","true","[[29,205],[242,167],[103,1]]","true",""
"visual-search-circle","148","2.2.0","480142","78845","visual_search_trial","437","","j","","","","","","","","","","null","red_circle","7","[""images/Red_Circle.png"",""images/Red_Circle.png"",""images/Red_Circle.png"",""images/Red_Circle.png"",""images/Red_Circle.png"",""images/Red_Circle.png""]","true","[[248,107],[171,9],[48,26],[1,142],[78,240],[201,223]]","false",""
"visual-search-circle","149","2.2.0","482294","78845","visual_search_trial","646","","j","","","","","","","","","","null","blue_triangle","7","[""images/Blue_Triangle.png"",""images/Blue_Triangle.png"",""images/Blue_Triangle.png"",""images/Blue_Triangle.png"",""images/Blue_Triangle.png"",""images/Blue_Triangle.png"",""images/Blue_Triangle.png"",""images/Blue_Triangle.png"",""images/Blue_Triangle.png""]","true","[[99,2],[26,48],[0,129],[32,208],[107,248],[191,231],[243,163],[240,78],[183,14]]","false",""
"visual-search-circle","150","2.2.0","484410","78845","visual_search_trial","613","","j","","","","","","","","","","null","red_circle","7","[""images/Red_Circle.png"",""images/Red_Circle.png"",""images/Red_Circle.png""]","true","[[16,62],[125,250],[233,62]]","false",""
"visual-search-circle","151","2.2.0","486675","78845","visual_search_trial","760","","f","","","","","","","","","","null","red_blue_mix","7","[""images/Red_Triangle.png"",""images/Red_Circle.png"",""images/Blue_Circle.png"",""images/Red_Circle.png"",""images/Blue_Circle.png"",""images/Blue_Circle.png"",""images/Blue_Triangle.png"",""images/Blue_Triangle.png"",""images/Blue_Triangle.png""]","true","[[107,1],[32,41],[0,120],[26,201],[99,247],[183,235],[240,171],[243,86],[191,18]]","true",""
"visual-search-circle","152","2.2.0","488898","78845","visual_search_trial","719","","f","","","","","","","","","","null","blue_triangle","7","[""images/Red_Triangle.png"",""images/Blue_Triangle.png"",""images/Blue_Triangle.png"",""images/Blue_Triangle.png"",""images/Blue_Triangle.png"",""images/Blue_Triangle.png""]","true","[[0,129],[66,235],[191,231],[249,120],[183,14],[58,18]]","true",""
"visual-search-circle","153","2.2.0","490810","78845","visual_search_trial","408","","j","","","","","","","","","","null","red_blue_mix","7","[""images/Blue_Triangle.png"",""images/Blue_Circle.png"",""images/Blue_Triangle.png""]","true","[[231,191],[129,0],[14,183]]","false",""
"visual-search-circle","154","2.2.0","493139","78845","visual_search_trial","824","","f","","","","","","","","","","null","blue_triangle","7","[""images/Red_Triangle.png"",""images/Blue_Triangle.png"",""images/Blue_Triangle.png"",""images/Blue_Triangle.png"",""images/Blue_Triangle.png"",""images/Blue_Triangle.png"",""images/Blue_Triangle.png"",""images/Blue_Triangle.png"",""images/Blue_Triangle.png""]","true","[[146,248],[220,205],[250,125],[220,44],[146,1],[62,16],[7,82],[7,167],[62,233]]","true",""
"visual-search-circle","155","2.2.0","495624","78845","visual_search_trial","982","","f","","","","","","","","","","null","red_circle","7","[""images/Red_Triangle.png"",""images/Red_Circle.png"",""images/Red_Circle.png""]","true","[[224,200],[140,0],[9,173]]","true",""
"visual-search-circle","156","2.2.0","497585","78845","visual_search_trial","456","","j","","","","","","","","","","null","red_blue_mix","7","[""images/Blue_Circle.png"",""images/Blue_Circle.png"",""images/Red_Circle.png"",""images/Blue_Circle.png"",""images/Blue_Circle.png"",""images/Blue_Circle.png"",""images/Red_Circle.png"",""images/Red_Circle.png"",""images/Red_Circle.png""]","true","[[155,3],[70,12],[10,74],[4,159],[55,228],[138,249],[214,211],[249,133],[226,51]]","false",""
"visual-search-circle","157","2.2.0","499581","78845","visual_search_trial","491","","j","","","","","","","","","","null","red_circle","7","[""images/Red_Circle.png"",""images/Red_Circle.png"",""images/Red_Circle.png"",""images/Red_Circle.png"",""images/Red_Circle.png"",""images/Red_Circle.png"",""images/Red_Circle.png"",""images/Red_Circle.png"",""images/Red_Circle.png""]","true","[[237,70],[175,10],[90,4],[21,55],[0,138],[38,214],[116,249],[198,226],[246,155]]","false",""
"visual-search-circle","158","2.2.0","501854","78845","visual_search_trial","770","","f","","","","","","","","","","null","red_blue_mix","7","[""images/Red_Triangle.png"",""images/Blue_Triangle.png"",""images/Blue_Circle.png""]","true","[[161,5],[3,153],[210,216]]","true",""
"visual-search-circle","159","2.2.0","504064","78845","visual_search_trial","706","","j","","","","","","","","","","null","blue_triangle","7","[""images/Blue_Triangle.png"",""images/Blue_Triangle.png"",""images/Blue_Triangle.png""]","true","[[246,153],[88,5],[39,216]]","false",""
"visual-search-circle","160","2.2.0","506329","78845","visual_search_trial","758","","f","","","","","","","","","","null","red_circle","7","[""images/Red_Triangle.png"",""images/Red_Circle.png"",""images/Red_Circle.png"",""images/Red_Circle.png"",""images/Red_Circle.png"",""images/Red_Circle.png"",""images/Red_Circle.png"",""images/Red_Circle.png"",""images/Red_Circle.png""]","true","[[167,7],[82,7],[16,62],[1,146],[44,220],[125,250],[205,220],[248,146],[233,62]]","true",""
"visual-search-circle","161","2.2.0","508398","78845","visual_search_trial","565","","j","","","","","","","","","","null","red_blue_mix","7","[""images/Blue_Triangle.png"",""images/Blue_Triangle.png"",""images/Blue_Circle.png"",""images/Blue_Triangle.png"",""images/Blue_Triangle.png"",""images/Blue_Circle.png""]","true","[[114,0],[11,72],[22,196],[135,249],[238,177],[227,53]]","false",""
"html-keyboard-response","162","2.1.0","510279","78845","break","1879","<p>Great job so far! Please rest for a few seconds before continuing.</p>
                 <p>Press the <strong>O</strong> key on your keyboard to continue.</p>","o","","","","","","","","","","","","","","","","","O"
"visual-search-circle","163","2.2.0","513619","78845","visual_search_trial","1836","","f","","","","","","","","","","null","red_blue_mix","8","[""images/Red_Circle.png"",""images/Blue_Triangle.png"",""images/Red_Circle.png"",""images/Blue_Triangle.png"",""images/Blue_Circle.png"",""images/Blue_Triangle.png""]","false","[[213,36],[92,4],[4,92],[36,213],[157,245],[245,157]]","false",""
"visual-search-circle","164","2.2.0","516416","78845","visual_search_trial","1293","","f","","","","","","","","","","null","blue_triangle","8","[""images/Red_Triangle.png"",""images/Blue_Triangle.png"",""images/Blue_Triangle.png""]","true","[[4,157],[213,213],[157,4]]","true",""
"visual-search-circle","165","2.2.0","518712","78845","visual_search_trial","792","","f","","","","","","","","","","null","red_blue_mix","8","[""images/Red_Triangle.png"",""images/Red_Circle.png"",""images/Red_Circle.png"",""images/Blue_Circle.png"",""images/Blue_Circle.png"",""images/Red_Circle.png""]","true","[[244,161],[216,39],[96,3],[5,88],[33,210],[153,246]]","true",""
"visual-search-circle","166","2.2.0","520821","78845","visual_search_trial","605","","j","","","","","","","","","","null","red_circle","8","[""images/Red_Circle.png"",""images/Red_Circle.png"",""images/Red_Circle.png""]","true","[[200,25],[0,109],[173,240]]","false",""
"visual-search-circle","167","2.2.0","523240","78845","visual_search_trial","915","","f","","","","","","","","","","null","blue_triangle","8","[""images/Red_Triangle.png"",""images/Blue_Triangle.png"",""images/Blue_Triangle.png"",""images/Blue_Triangle.png"",""images/Blue_Triangle.png"",""images/Blue_Triangle.png""]","true","[[101,2],[6,84],[30,207],[148,247],[243,165],[219,42]]","true",""
"visual-search-circle","168","2.2.0","525674","78845","visual_search_trial","929","","f","","","","","","","","","","null","red_blue_mix","8","[""images/Red_Triangle.png"",""images/Blue_Circle.png"",""images/Blue_Triangle.png""]","true","[[33,39],[96,246],[244,88]]","true",""
"visual-search-circle","169","2.2.0","527808","78845","visual_search_trial","630","","j","","","","","","","","","","null","blue_triangle","8","[""images/Blue_Triangle.png"",""images/Blue_Triangle.png"",""images/Blue_Triangle.png"",""images/Blue_Triangle.png"",""images/Blue_Triangle.png"",""images/Blue_Triangle.png""]","true","[[92,245],[213,213],[245,92],[157,4],[36,36],[4,157]]","false",""
"visual-search-circle","170","2.2.0","530059","78845","visual_search_trial","745","","j","","","","","","","","","","null","red_blue_mix","8","[""images/Blue_Circle.png"",""images/Red_Circle.png"",""images/Blue_Circle.png"",""images/Blue_Triangle.png"",""images/Blue_Circle.png"",""images/Blue_Circle.png"",""images/Red_Circle.png"",""images/Red_Circle.png"",""images/Red_Circle.png""]","true","[[171,240],[235,183],[247,99],[201,26],[120,0],[41,32],[1,107],[18,191],[86,243]]","false",""
"visual-search-circle","171","2.2.0","532390","78845","visual_search_trial","828","","f","","","","","","","","","","null","red_circle","8","[""images/Red_Triangle.png"",""images/Red_Circle.png"",""images/Red_Circle.png""]","true","[[64,234],[249,122],[60,17]]","true",""
"visual-search-circle","172","2.2.0","534381","78845","visual_search_trial","486","","j","","","","","","","","","","null","blue_triangle","8","[""images/Blue_Triangle.png"",""images/Blue_Triangle.png"",""images/Blue_Triangle.png"",""images/Blue_Triangle.png"",""images/Blue_Triangle.png"",""images/Blue_Triangle.png"",""images/Blue_Triangle.png"",""images/Blue_Triangle.png"",""images/Blue_Triangle.png""]","true","[[125,250],[205,220],[248,146],[233,62],[167,7],[82,7],[16,62],[1,146],[44,220]]","false",""
"visual-search-circle","173","2.2.0","536689","78845","visual_search_trial","802","","f","","","","","","","","","","null","red_circle","8","[""images/Red_Triangle.png"",""images/Red_Circle.png"",""images/Red_Circle.png"",""images/Red_Circle.png"",""images/Red_Circle.png"",""images/Red_Circle.png"",""images/Red_Circle.png"",""images/Red_Circle.png"",""images/Red_Circle.png""]","true","[[207,30],[127,0],[46,27],[2,101],[15,185],[80,241],[165,243],[232,189],[248,105]]","true",""
"visual-search-circle","174","2.2.0","539579","78845","visual_search_trial","1387","","j","","","","","","","","","","null","red_blue_mix","8","[""images/Blue_Triangle.png"",""images/Blue_Circle.png"",""images/Red_Circle.png""]","true","[[0,129],[191,231],[183,14]]","false",""
"visual-search-circle","175","2.2.0","541625","78845","visual_search_trial","541","","j","","","","","","","","","","null","red_circle","8","[""images/Red_Circle.png"",""images/Red_Circle.png"",""images/Red_Circle.png"",""images/Red_Circle.png"",""images/Red_Circle.png"",""images/Red_Circle.png"",""images/Red_Circle.png"",""images/Red_Circle.png"",""images/Red_Circle.png""]","true","[[44,29],[1,103],[16,187],[82,242],[167,242],[233,187],[248,103],[205,29],[125,0]]","false",""
"visual-search-circle","176","2.2.0","544196","78845","visual_search_trial","1066","","f","","","","","","","","","","null","red_blue_mix","8","[""images/Red_Triangle.png"",""images/Blue_Circle.png"",""images/Blue_Triangle.png"",""images/Blue_Triangle.png"",""images/Red_Circle.png"",""images/Red_Circle.png"",""images/Red_Circle.png"",""images/Red_Circle.png"",""images/Blue_Triangle.png""]","true","[[62,16],[7,82],[7,167],[62,233],[146,248],[220,205],[250,125],[220,44],[146,1]]","true",""
"visual-search-circle","177","2.2.0","546100","78845","visual_search_trial","400","","j","","","","","","","","","","null","blue_triangle","8","[""images/Blue_Triangle.png"",""images/Blue_Triangle.png"",""images/Blue_Triangle.png""]","true","[[92,245],[245,92],[36,36]]","false",""
"visual-search-circle","178","2.2.0","548567","78845","visual_search_trial","963","","f","","","","","","","","","","null","red_circle","8","[""images/Red_Triangle.png"",""images/Red_Circle.png"",""images/Red_Circle.png"",""images/Red_Circle.png"",""images/Red_Circle.png"",""images/Red_Circle.png""]","true","[[189,232],[249,122],[185,15],[60,17],[0,127],[64,234]]","true",""
"visual-search-circle","179","2.2.0","550927","78845","visual_search_trial","854","","f","","","","","","","","","","null","blue_triangle","8","[""images/Red_Triangle.png"",""images/Blue_Triangle.png"",""images/Blue_Triangle.png"",""images/Blue_Triangle.png"",""images/Blue_Triangle.png"",""images/Blue_Triangle.png"",""images/Blue_Triangle.png"",""images/Blue_Triangle.png"",""images/Blue_Triangle.png""]","true","[[114,0],[36,36],[0,114],[22,196],[92,245],[177,238],[238,177],[245,92],[196,22]]","true",""
"visual-search-circle","180","2.2.0","555351","78845","visual_search_trial","2919","","j","","","","","","","","","","null","red_circle","8","[""images/Red_Circle.png"",""images/Red_Circle.png"",""images/Red_Circle.png"",""images/Red_Circle.png"",""images/Red_Circle.png"",""images/Red_Circle.png""]","true","[[20,193],[131,249],[236,181],[229,56],[118,0],[13,68]]","false",""
"visual-search-circle","181","2.2.0","557612","78845","visual_search_trial","757","","f","","","","","","","","","","null","red_circle","9","[""images/Red_Triangle.png"",""images/Red_Circle.png"",""images/Red_Circle.png""]","true","[[234,185],[122,0],[17,189]]","true",""
"visual-search-circle","182","2.2.0","561497","78845","visual_search_trial","2382","","f","","","","","","","","","","null","red_blue_mix","9","[""images/Red_Triangle.png"",""images/Red_Circle.png"",""images/Red_Circle.png""]","true","[[0,140],[200,224],[173,9]]","true",""
"visual-search-circle","183","2.2.0","564945","78845","visual_search_trial","1944","","j","","","","","","","","","","null","red_circle","9","[""images/Red_Circle.png"",""images/Red_Circle.png"",""images/Red_Circle.png""]","true","[[249,127],[64,15],[60,232]]","false",""
"visual-search-circle","184","2.2.0","567503","78845","visual_search_trial","1054","","f","","","","","","","","","","null","red_blue_mix","9","[""images/Red_Triangle.png"",""images/Blue_Circle.png"",""images/Red_Circle.png"",""images/Blue_Triangle.png"",""images/Blue_Triangle.png"",""images/Red_Circle.png""]","true","[[12,179],[116,249],[228,194],[237,70],[133,0],[21,55]]","true",""
"visual-search-circle","185","2.2.0","569941","78845","visual_search_trial","932","","j","","","","","","","","","","null","blue_triangle","9","[""images/Blue_Triangle.png"",""images/Blue_Triangle.png"",""images/Blue_Triangle.png"",""images/Blue_Triangle.png"",""images/Blue_Triangle.png"",""images/Blue_Triangle.png"",""images/Blue_Triangle.png"",""images/Blue_Triangle.png"",""images/Blue_Triangle.png""]","true","[[222,46],[148,2],[64,15],[8,80],[6,165],[60,232],[144,248],[219,207],[249,127]]","false",""
"visual-search-circle","186","2.2.0","572159","78845","visual_search_trial","712","","j","","","","","","","","","","null","red_circle","9","[""images/Red_Circle.png"",""images/Red_Circle.png"",""images/Red_Circle.png"",""images/Red_Circle.png"",""images/Red_Circle.png"",""images/Red_Circle.png"",""images/Red_Circle.png"",""images/Red_Circle.png"",""images/Red_Circle.png""]","true","[[250,125],[220,44],[146,1],[62,16],[7,82],[7,167],[62,233],[146,248],[220,205]]","false",""
"visual-search-circle","187","2.2.0","574577","78845","visual_search_trial","912","","j","","","","","","","","","","null","red_blue_mix","9","[""images/Blue_Circle.png"",""images/Blue_Triangle.png"",""images/Blue_Circle.png"",""images/Blue_Circle.png"",""images/Red_Circle.png"",""images/Blue_Circle.png"",""images/Red_Circle.png"",""images/Blue_Circle.png"",""images/Blue_Triangle.png""]","true","[[27,203],[101,247],[185,234],[241,169],[243,84],[189,17],[105,1],[30,42],[0,122]]","false",""
"visual-search-circle","188","2.2.0","576683","78845","visual_search_trial","603","","j","","","","","","","","","","null","red_circle","9","[""images/Red_Circle.png"",""images/Red_Circle.png"",""images/Red_Circle.png"",""images/Red_Circle.png"",""images/Red_Circle.png"",""images/Red_Circle.png""]","true","[[227,196],[238,72],[135,0],[22,53],[11,177],[114,249]]","false",""
"visual-search-circle","189","2.2.0","578895","78845","visual_search_trial","707","","j","","","","","","","","","","null","red_blue_mix","9","[""images/Red_Circle.png"",""images/Blue_Circle.png"",""images/Blue_Circle.png"",""images/Blue_Circle.png"",""images/Red_Circle.png"",""images/Blue_Triangle.png""]","true","[[234,185],[232,60],[122,0],[15,64],[17,189],[127,249]]","false",""
"visual-search-circle","190","2.2.0","580893","78845","visual_search_trial","495","","j","","","","","","","","","","null","blue_triangle","9","[""images/Blue_Triangle.png"",""images/Blue_Triangle.png"",""images/Blue_Triangle.png""]","true","[[198,226],[175,10],[0,138]]","false",""
"visual-search-circle","191","2.2.0","583208","78845","visual_search_trial","811","","f","","","","","","","","","","null","red_circle","9","[""images/Red_Triangle.png"",""images/Red_Circle.png"",""images/Red_Circle.png"",""images/Red_Circle.png"",""images/Red_Circle.png"",""images/Red_Circle.png"",""images/Red_Circle.png"",""images/Red_Circle.png"",""images/Red_Circle.png""]","true","[[198,226],[246,155],[237,70],[175,10],[90,4],[21,55],[0,138],[38,214],[116,249]]","true",""
"visual-search-circle","192","2.2.0","585554","78845","visual_search_trial","842","","f","","","","","","","","","","null","blue_triangle","9","[""images/Red_Triangle.png"",""images/Blue_Triangle.png"",""images/Blue_Triangle.png"",""images/Blue_Triangle.png"",""images/Blue_Triangle.png"",""images/Blue_Triangle.png""]","true","[[88,5],[3,96],[39,216],[161,244],[246,153],[210,33]]","true",""
"visual-search-circle","193","2.2.0","587825","78845","visual_search_trial","766","","f","","","","","","","","","","null","red_circle","9","[""images/Red_Triangle.png"",""images/Red_Circle.png"",""images/Red_Circle.png"",""images/Red_Circle.png"",""images/Red_Circle.png"",""images/Red_Circle.png""]","true","[[159,4],[38,35],[3,155],[90,245],[211,214],[246,94]]","true",""
"visual-search-circle","194","2.2.0","589704","78845","visual_search_trial","374","","j","","","","","","","","","","null","blue_triangle","9","[""images/Blue_Triangle.png"",""images/Blue_Triangle.png"",""images/Blue_Triangle.png"",""images/Blue_Triangle.png"",""images/Blue_Triangle.png"",""images/Blue_Triangle.png""]","true","[[131,0],[20,56],[13,181],[118,249],[229,193],[236,68]]","false",""
"visual-search-circle","195","2.2.0","592161","78845","visual_search_trial","954","","j","","","","","","","","","","null","red_blue_mix","9","[""images/Blue_Triangle.png"",""images/Red_Circle.png"",""images/Blue_Triangle.png""]","true","[[86,6],[41,217],[247,150]]","false",""
"visual-search-circle","196","2.2.0","594600","78845","visual_search_trial","934","","f","","","","","","","","","","null","blue_triangle","9","[""images/Red_Triangle.png"",""images/Blue_Triangle.png"",""images/Blue_Triangle.png"",""images/Blue_Triangle.png"",""images/Blue_Triangle.png"",""images/Blue_Triangle.png"",""images/Blue_Triangle.png"",""images/Blue_Triangle.png"",""images/Blue_Triangle.png""]","true","[[201,223],[247,150],[235,66],[171,9],[86,6],[18,58],[1,142],[41,217],[120,249]]","true",""
"visual-search-circle","197","2.2.0","596922","78845","visual_search_trial","817","","f","","","","","","","","","","null","red_blue_mix","9","[""images/Red_Triangle.png"",""images/Blue_Circle.png"",""images/Red_Circle.png"",""images/Blue_Triangle.png"",""images/Blue_Triangle.png"",""images/Blue_Triangle.png"",""images/Red_Circle.png"",""images/Red_Circle.png"",""images/Red_Circle.png""]","true","[[249,114],[213,36],[135,0],[53,22],[4,92],[11,177],[72,238],[157,245],[227,196]]","true",""
"visual-search-circle","198","2.2.0","599173","78845","visual_search_trial","748","","f","","","","","","","","","","null","blue_triangle","9","[""images/Red_Triangle.png"",""images/Blue_Triangle.png"",""images/Blue_Triangle.png""]","true","[[44,220],[248,146],[82,7]]","true",""
"html-keyboard-response","199","2.1.0","603399","78845","break","4224","<p>Great job so far! Please rest for a few seconds before continuing.</p>
                 <p>Press the <strong>N</strong> key on your keyboard to continue.</p>","n","","","","","","","","","","","","","","","","","N"
"visual-search-circle","200","2.2.0","605694","78845","visual_search_trial","791","","j","","","","","","","","","","null","red_circle","10","[""images/Red_Circle.png"",""images/Red_Circle.png"",""images/Red_Circle.png"",""images/Red_Circle.png"",""images/Red_Circle.png"",""images/Red_Circle.png""]","true","[[233,62],[125,0],[16,62],[16,187],[125,250],[233,187]]","false",""
"visual-search-circle","201","2.2.0","607994","78845","visual_search_trial","797","","f","","","","","","","","","","null","red_blue_mix","10","[""images/Red_Triangle.png"",""images/Blue_Triangle.png"",""images/Blue_Circle.png""]","true","[[236,68],[20,56],[118,249]]","true",""
"visual-search-circle","202","2.2.0","610281","78845","visual_search_trial","783","","f","","","","","","","","","","null","red_circle","10","[""images/Red_Triangle.png"",""images/Red_Circle.png"",""images/Red_Circle.png"",""images/Red_Circle.png"",""images/Red_Circle.png"",""images/Red_Circle.png"",""images/Red_Circle.png"",""images/Red_Circle.png"",""images/Red_Circle.png""]","true","[[76,9],[13,68],[3,153],[49,224],[131,249],[210,216],[249,140],[229,56],[161,5]]","true",""
"visual-search-circle","203","2.2.0","612192","78845","visual_search_trial","407","","j","","","","","","","","","","null","red_blue_mix","10","[""images/Blue_Triangle.png"",""images/Blue_Circle.png"",""images/Blue_Circle.png""]","true","[[84,243],[247,101],[42,30]]","false",""
"visual-search-circle","204","2.2.0","614153","78845","visual_search_trial","456","","f","","","","","","","","","","null","blue_triangle","10","[""images/Red_Triangle.png"",""images/Blue_Triangle.png"",""images/Blue_Triangle.png"",""images/Blue_Triangle.png"",""images/Blue_Triangle.png"",""images/Blue_Triangle.png"",""images/Blue_Triangle.png"",""images/Blue_Triangle.png"",""images/Blue_Triangle.png""]","true","[[246,155],[237,70],[175,10],[90,4],[21,55],[0,138],[38,214],[116,249],[198,226]]","true",""
"visual-search-circle","205","2.2.0","616058","78845","visual_search_trial","399","","j","","","","","","","","","","null","red_circle","10","[""images/Red_Circle.png"",""images/Red_Circle.png"",""images/Red_Circle.png"",""images/Red_Circle.png"",""images/Red_Circle.png"",""images/Red_Circle.png"",""images/Red_Circle.png"",""images/Red_Circle.png"",""images/Red_Circle.png""]","true","[[3,94],[12,179],[74,239],[159,245],[228,194],[249,111],[211,35],[133,0],[51,23]]","false",""
"visual-search-circle","206","2.2.0","618334","78845","visual_search_trial","771","","j","","","","","","","","","","null","blue_triangle","10","[""images/Blue_Triangle.png"",""images/Blue_Triangle.png"",""images/Blue_Triangle.png"",""images/Blue_Triangle.png"",""images/Blue_Triangle.png"",""images/Blue_Triangle.png"",""images/Blue_Triangle.png"",""images/Blue_Triangle.png"",""images/Blue_Triangle.png""]","true","[[53,227],[135,249],[213,213],[249,135],[227,53],[157,4],[72,11],[11,72],[4,157]]","false",""
"visual-search-circle","207","2.2.0","620536","78845","visual_search_trial","699","","j","","","","","","","","","","null","red_circle","10","[""images/Red_Circle.png"",""images/Red_Circle.png"",""images/Red_Circle.png""]","true","[[6,84],[148,247],[219,42]]","false",""
"visual-search-circle","208","2.2.0","622758","78845","visual_search_trial","716","","j","","","","","","","","","","null","red_blue_mix","10","[""images/Red_Circle.png"",""images/Red_Circle.png"",""images/Blue_Circle.png"",""images/Blue_Triangle.png"",""images/Blue_Circle.png"",""images/Red_Circle.png"",""images/Blue_Triangle.png"",""images/Blue_Triangle.png"",""images/Red_Circle.png""]","true","[[2,101],[15,185],[80,241],[165,243],[232,189],[248,105],[207,30],[127,0],[46,27]]","false",""
"visual-search-circle","209","2.2.0","624996","78845","visual_search_trial","735","","f","","","","","","","","","","null","red_circle","10","[""images/Red_Triangle.png"",""images/Red_Circle.png"",""images/Red_Circle.png""]","true","[[133,0],[12,179],[228,194]]","true",""
"visual-search-circle","210","2.2.0","627020","78845","visual_search_trial","520","","j","","","","","","","","","","null","red_blue_mix","10","[""images/Red_Circle.png"",""images/Red_Circle.png"",""images/Red_Circle.png"",""images/Red_Circle.png"",""images/Blue_Triangle.png"",""images/Blue_Circle.png""]","true","[[246,155],[211,35],[90,4],[3,94],[38,214],[159,245]]","false",""
"visual-search-circle","211","2.2.0","629364","78845","visual_search_trial","840","","f","","","","","","","","","","null","blue_triangle","10","[""images/Red_Triangle.png"",""images/Blue_Triangle.png"",""images/Blue_Triangle.png""]","true","[[5,161],[216,210],[153,3]]","true",""
"visual-search-circle","212","2.2.0","631727","78845","visual_search_trial","858","","f","","","","","","","","","","null","red_blue_mix","10","[""images/Red_Triangle.png"",""images/Blue_Circle.png"",""images/Blue_Circle.png"",""images/Blue_Triangle.png"",""images/Blue_Triangle.png"",""images/Blue_Triangle.png""]","true","[[243,86],[150,2],[32,41],[6,163],[99,247],[217,208]]","true",""
"visual-search-circle","213","2.2.0","633925","78845","visual_search_trial","694","","j","","","","","","","","","","null","blue_triangle","10","[""images/Blue_Triangle.png"",""images/Blue_Triangle.png"",""images/Blue_Triangle.png"",""images/Blue_Triangle.png"",""images/Blue_Triangle.png"",""images/Blue_Triangle.png""]","true","[[200,224],[249,109],[173,9],[49,25],[0,140],[76,240]]","false",""
"visual-search-circle","214","2.2.0","636608","78845","visual_search_trial","1179","","f","","","","","","","","","","null","red_circle","10","[""images/Red_Triangle.png"",""images/Red_Circle.png"",""images/Red_Circle.png"",""images/Red_Circle.png"",""images/Red_Circle.png"",""images/Red_Circle.png""]","true","[[140,0],[25,49],[9,173],[109,249],[224,200],[240,76]]","true",""
"visual-search-circle","215","2.2.0","638858","78845","visual_search_trial","745","","f","","","","","","","","","","null","blue_triangle","10","[""images/Red_Triangle.png"",""images/Blue_Triangle.png"",""images/Blue_Triangle.png"",""images/Blue_Triangle.png"",""images/Blue_Triangle.png"",""images/Blue_Triangle.png""]","true","[[15,64],[17,189],[127,249],[234,185],[232,60],[122,0]]","true",""
"visual-search-circle","216","2.2.0","641431","78845","visual_search_trial","1069","","f","","","","","","","","","","null","red_blue_mix","10","[""images/Red_Triangle.png"",""images/Blue_Circle.png"",""images/Blue_Triangle.png"",""images/Blue_Circle.png"",""images/Red_Circle.png"",""images/Blue_Circle.png"",""images/Blue_Circle.png"",""images/Blue_Triangle.png"",""images/Blue_Triangle.png""]","true","[[237,70],[175,10],[90,4],[21,55],[0,138],[38,214],[116,249],[198,226],[246,155]]","true",""
"visual-search-circle","217","2.2.0","643424","78845","visual_search_trial","490","","j","","","","","","","","","","null","blue_triangle","10","[""images/Blue_Triangle.png"",""images/Blue_Triangle.png"",""images/Blue_Triangle.png""]","true","[[23,51],[111,249],[239,74]]","false",""
"visual-search-circle","218","2.2.0","645802","78845","visual_search_trial","872","","j","","","","","","","","","","null","red_blue_mix","11","[""images/Blue_Circle.png"",""images/Blue_Circle.png"",""images/Blue_Circle.png"",""images/Red_Circle.png"",""images/Blue_Triangle.png"",""images/Blue_Triangle.png"",""images/Red_Circle.png"",""images/Red_Circle.png"",""images/Red_Circle.png""]","true","[[80,241],[165,243],[232,189],[248,105],[207,30],[127,0],[46,27],[2,101],[15,185]]","false",""
"visual-search-circle","219","2.2.0","647927","78845","visual_search_trial","621","","j","","","","","","","","","","null","blue_triangle","11","[""images/Blue_Triangle.png"",""images/Blue_Triangle.png"",""images/Blue_Triangle.png"",""images/Blue_Triangle.png"",""images/Blue_Triangle.png"",""images/Blue_Triangle.png"",""images/Blue_Triangle.png"",""images/Blue_Triangle.png"",""images/Blue_Triangle.png""]","true","[[16,187],[82,242],[167,242],[233,187],[248,103],[205,29],[125,0],[44,29],[1,103]]","false",""
"visual-search-circle","220","2.2.0","650316","78845","visual_search_trial","885","","f","","","","","","","","","","null","red_blue_mix","11","[""images/Red_Triangle.png"",""images/Blue_Triangle.png"",""images/Blue_Triangle.png"",""images/Blue_Triangle.png"",""images/Blue_Triangle.png"",""images/Blue_Circle.png""]","true","[[101,247],[219,207],[243,84],[148,2],[30,42],[6,165]]","true",""
"visual-search-circle","221","2.2.0","652738","78845","visual_search_trial","919","","f","","","","","","","","","","null","blue_triangle","11","[""images/Red_Triangle.png"",""images/Blue_Triangle.png"",""images/Blue_Triangle.png""]","true","[[125,250],[233,62],[16,62]]","true",""
"visual-search-circle","222","2.2.0","655078","78845","visual_search_trial","836","","f","","","","","","","","","","null","red_circle","11","[""images/Red_Triangle.png"",""images/Red_Circle.png"",""images/Red_Circle.png""]","true","[[187,16],[0,125],[187,233]]","true",""
"visual-search-circle","223","2.2.0","657370","78845","visual_search_trial","788","","f","","","","","","","","","","null","red_blue_mix","11","[""images/Red_Triangle.png"",""images/Blue_Triangle.png"",""images/Blue_Triangle.png""]","true","[[233,187],[125,0],[16,187]]","true",""
"visual-search-circle","224","2.2.0","659711","78845","visual_search_trial","837","","f","","","","","","","","","","null","red_circle","11","[""images/Red_Triangle.png"",""images/Red_Circle.png"",""images/Red_Circle.png"",""images/Red_Circle.png"",""images/Red_Circle.png"",""images/Red_Circle.png""]","true","[[173,240],[249,140],[200,25],[76,9],[0,109],[49,224]]","true",""
"visual-search-circle","225","2.2.0","661872","78845","visual_search_trial","655","","f","","","","","","","","","","null","blue_triangle","11","[""images/Red_Triangle.png"",""images/Blue_Triangle.png"",""images/Blue_Triangle.png"",""images/Blue_Triangle.png"",""images/Blue_Triangle.png"",""images/Blue_Triangle.png"",""images/Blue_Triangle.png"",""images/Blue_Triangle.png"",""images/Blue_Triangle.png""]","true","[[53,227],[135,249],[213,213],[249,135],[227,53],[157,4],[72,11],[11,72],[4,157]]","true",""
"visual-search-circle","226","2.2.0","664197","78845","visual_search_trial","821","","j","","","","","","","","","","null","red_circle","11","[""images/Red_Circle.png"",""images/Red_Circle.png"",""images/Red_Circle.png"",""images/Red_Circle.png"",""images/Red_Circle.png"",""images/Red_Circle.png""]","true","[[236,181],[229,56],[118,0],[13,68],[20,193],[131,249]]","false",""
"visual-search-circle","227","2.2.0","666972","78845","visual_search_trial","1270","","f","","","","","","","","","","null","red_blue_mix","11","[""images/Red_Triangle.png"",""images/Blue_Triangle.png"",""images/Blue_Circle.png"",""images/Blue_Circle.png"",""images/Red_Circle.png"",""images/Blue_Triangle.png"",""images/Red_Circle.png"",""images/Red_Circle.png"",""images/Red_Circle.png""]","true","[[6,163],[58,231],[142,248],[217,208],[249,129],[223,48],[150,2],[66,14],[9,78]]","true",""
"visual-search-circle","228","2.2.0","669230","78845","visual_search_trial","755","","j","","","","","","","","","","null","blue_triangle","11","[""images/Blue_Triangle.png"",""images/Blue_Triangle.png"",""images/Blue_Triangle.png"",""images/Blue_Triangle.png"",""images/Blue_Triangle.png"",""images/Blue_Triangle.png""]","true","[[84,6],[2,101],[42,219],[165,243],[247,148],[207,30]]","false",""
"visual-search-circle","229","2.2.0","671372","78845","visual_search_trial","637","","j","","","","","","","","","","null","red_blue_mix","11","[""images/Red_Circle.png"",""images/Red_Circle.png"",""images/Blue_Triangle.png"",""images/Red_Circle.png"",""images/Blue_Circle.png"",""images/Red_Circle.png""]","true","[[122,0],[15,64],[17,189],[127,249],[234,185],[232,60]]","false",""
"visual-search-circle","230","2.2.0","673528","78845","visual_search_trial","651","","j","","","","","","","","","","null","red_circle","11","[""images/Red_Circle.png"",""images/Red_Circle.png"",""images/Red_Circle.png"",""images/Red_Circle.png"",""images/Red_Circle.png"",""images/Red_Circle.png"",""images/Red_Circle.png"",""images/Red_Circle.png"",""images/Red_Circle.png""]","true","[[131,0],[49,25],[3,96],[13,181],[76,240],[161,244],[229,193],[249,109],[210,33]]","false",""
"visual-search-circle","231","2.2.0","675519","78845","visual_search_trial","488","","j","","","","","","","","","","null","red_blue_mix","11","[""images/Blue_Circle.png"",""images/Blue_Circle.png"",""images/Blue_Circle.png""]","true","[[105,248],[241,80],[27,46]]","false",""
"visual-search-circle","232","2.2.0","677482","78845","visual_search_trial","460","","j","","","","","","","","","","null","blue_triangle","11","[""images/Blue_Triangle.png"",""images/Blue_Triangle.png"",""images/Blue_Triangle.png""]","true","[[232,60],[15,64],[127,249]]","false",""
"visual-search-circle","233","2.2.0","679974","78845","visual_search_trial","987","","f","","","","","","","","","","null","red_circle","11","[""images/Red_Triangle.png"",""images/Red_Circle.png"",""images/Red_Circle.png"",""images/Red_Circle.png"",""images/Red_Circle.png"",""images/Red_Circle.png"",""images/Red_Circle.png"",""images/Red_Circle.png"",""images/Red_Circle.png""]","true","[[60,232],[144,248],[219,207],[249,127],[222,46],[148,2],[64,15],[8,80],[6,165]]","true",""
"visual-search-circle","234","2.2.0","682341","78845","visual_search_trial","863","","f","","","","","","","","","","null","blue_triangle","11","[""images/Red_Triangle.png"",""images/Blue_Triangle.png"",""images/Blue_Triangle.png"",""images/Blue_Triangle.png"",""images/Blue_Triangle.png"",""images/Blue_Triangle.png""]","true","[[148,2],[30,42],[6,165],[101,247],[219,207],[243,84]]","true",""
