"trial_type","trial_index","plugin_version","time_elapsed","sona_id","phase","rt","stimulus","response","consented","required_key","view_history","question_order","success","timeout","failed_images","failed_audio","failed_video","set_size","distractor_type","block","stimuli_list","correct","locations","target_present","break_key"
"pavlovia","0","null","1058","78958","","","","","","","","","","","","","","","","","","","","",""
"html-button-response","1","2.1.0","28342","78958","informed_consent","27283","
    <div style=""max-width: 900px; margin: 0 auto; padding: 20px; text-align: left; line-height: 1.6;"">
      <h1 style=""text-align: center; color: #333; font-size: 24px; margin-bottom: 10px; font-weight: bold;"">
        INFORMED CONSENT INFORMATION
      </h1>
      <h2 style=""text-align: center; color: #333; font-size: 22px; margin-bottom: 20px; font-weight: bold;"">
        FOR RESEARCH PARTICIPATION
      </h2>
      
      <p style=""margin-bottom: 10px;""><strong>Study Title:</strong> The Effects of Mindfulness and Attention on Life Satisfaction and Memory</p>
      <p style=""margin-bottom: 10px;""><strong>Principal Investigator:</strong> Ella Bremmer</p>
      <p style=""margin-bottom: 10px;""><strong>Co-Principal Investigator:</strong> Dr. Gregory Cox</p>
      <p style=""margin-bottom: 20px;""><strong>IRB Study Number:</strong></p>

      <p style=""margin-bottom: 15px;"">I am a student at the University at Albany, in the Department of Psychology. I am planning to conduct a research study, which I invite you to take part in.</p>
      
      <p style=""margin-bottom: 25px;"">This form has important information about the reasons for doing this study, what we will ask you to do, and the way we would like to use the information we collect about you.</p>

      <h3 style=""color: #333; font-size: 18px; margin-top: 25px; margin-bottom: 10px; font-weight: bold;"">
        Why are you doing this study?
      </h3>
      <p style=""margin-bottom: 15px;"">You are being asked to participate in a research study that aims to understand if there is a relationship between mindfulness, the ability to pay attention, and life satisfaction.</p>
      
      <p style=""margin-bottom: 25px;"">The purpose of this study is to investigate if having better control over one's attention influences overall life satisfaction. Your participation will help us better understand if mindfulness and attention do have a significant effect on life satisfaction (i.e., how people feel about their lives overall). Then you will be asked to perform a conjunction visual search task to test your capacity to direct your attention over a sustained period.</p>

      <h3 style=""color: #333; font-size: 18px; margin-top: 25px; margin-bottom: 10px; font-weight: bold;"">
        Why am I eligible to participate in this study?
      </h3>
      <p style=""margin-bottom: 25px;"">You are eligible to participate because you are a student at UAlbany, are at least 18 years old, and are proficient in English.</p>

      <h3 style=""color: #333; font-size: 18px; margin-top: 25px; margin-bottom: 10px; font-weight: bold;"">
        What will I do if I choose to be in this study?
      </h3>
      <p style=""margin-bottom: 10px;"">If you choose to take part in our study, you will do the following:</p>
      <p style=""margin-bottom: 8px; margin-left: 20px;"">1. Read and agree to the informed consent.</p>
      <p style=""margin-bottom: 8px; margin-left: 40px;"">a. If you choose not to agree to the informed consent, you will be taken back to the SONA site.</p>
      <p style=""margin-bottom: 8px; margin-left: 20px;"">2. Complete a demographic questionnaire that asks about your age, English proficiency, gender, and race.</p>
      <p style=""margin-bottom: 8px; margin-left: 20px;"">3. Read instructions for the visual search task, which asks you to indicate if a target (a red triangle) is present among various other colored shapes. You should press the ""F"" key if a red triangle is present, or the ""J"" key if the target is absent.</p>
      <p style=""margin-bottom: 8px; margin-left: 20px;"">4. You will be asked to respond to 270 visual search trials, whith the opportunity to take short breaks as you go</p>
      <p style=""margin-bottom: 8px; margin-left: 20px;"">5. You will complete the Mindfulness Attention Awareness Scale (MAAS), the Satisfaction With Life Scale (SWLS), and the Big Five Inventory.</p>
      <p style=""margin-bottom: 25px; margin-left: 20px;"">6.	After all questionnaires are completed, participants will be thanked for their time and will be provided the study debriefing. Following the debriefing, you will be sent back to the SONA research site.</p>

      <h3 style=""color: #333; font-size: 18px; margin-top: 25px; margin-bottom: 10px; font-weight: bold;"">
        For how long will I participate?
      </h3>
      <p style=""margin-bottom: 25px;"">This study is a single online session that you can complete on a computer. The study can be completed in less than 30 minutes but could require as long as 45 minutes to complete.</p>

      <h3 style=""color: #333; font-size: 18px; margin-top: 25px; margin-bottom: 10px; font-weight: bold;"">
        Where will I need to go to participate?
      </h3>
      <p style=""margin-bottom: 25px;"">All study procedures will take place online and can be completed wherever you have internet connection.</p>

      <h3 style=""color: #333; font-size: 18px; margin-top: 25px; margin-bottom: 10px; font-weight: bold;"">
        Are there any costs I should be aware of?
      </h3>
      <p style=""margin-bottom: 25px;"">Participation is not expected to incur cost to participants. Free internet access is available anywhere on campus and in the university library.</p>

      <h3 style=""color: #333; font-size: 18px; margin-top: 25px; margin-bottom: 10px; font-weight: bold;"">
        What are the possible risks or discomforts?
      </h3>
      <p style=""margin-bottom: 15px;"">As with all research, there is a chance that confidentiality of the information we collect from you could be breached – we will take steps to minimize this risk, as discussed in more detail below.</p>
      
      <p style=""margin-bottom: 25px;"">The risks associated with participating in this study are minimal; however, you may experience mild discomfort when reflecting on your mindfulness or life satisfaction when answering questionnaires in the study. To help minimize this, you can withdraw from the study at any time without any consequences. The study will take place online, and you will have the opportunity to take breaks while completing the survey to reduce the risk of eye strain associated with the use of electronic devices.</p>

      <h3 style=""color: #333; font-size: 18px; margin-top: 25px; margin-bottom: 10px; font-weight: bold;"">
        What are the possible benefits for me or others?
      </h3>
      <p style=""margin-bottom: 25px;"">While there are no direct personal benefits to participants of this study, you may find value in reflecting on your mindfulness, attention, and its impact on life satisfaction by completing this survey. The data you contribute may help advance society's understanding of how mindfulness and attention relate to overall well-being, potentially informing future programs or interventions aimed at improving student mental health, attention, and life satisfaction.</p>

      <h3 style=""color: #333; font-size: 18px; margin-top: 25px; margin-bottom: 10px; font-weight: bold;"">
        Will I receive compensation for my participation?
      </h3>
      <p style=""margin-bottom: 25px;"">SONA partial class credit will be awarded via the Psychology Department SONA research pool after you complete the survey in its entirety. Participants who withdraw before completing the survey will not receive partial credit. You will not receive monetary compensation for your participation in this study.</p>

      <h3 style=""color: #333; font-size: 18px; margin-top: 25px; margin-bottom: 10px; font-weight: bold;"">
        How will you protect the information you collect about me, and how will that information be shared?
      </h3>
      <p style=""margin-bottom: 15px;"">Results of this study may be used in publications and presentations. Your data will be handled as confidentially as possible, and no identifiable information will be collected to link your data back to you. If results of this study are published or presented, only de-identified summaries of data will be used.</p>
      
      <p style=""margin-bottom: 25px;"">To minimize the risks to confidentiality, all data will be collected anonymously via Pavlovia.org which uses encryption to protect information (https://pavlovia.org/docs/home/ethics). Only the student researcher (Ella Bremmer), mentor (Pierce Johnson), and faculty advisor (Gregory Cox) will have password-protected access to the data. Data will be stored on secure, university approved computers.</p>

      <h3 style=""color: #333; font-size: 18px; margin-top: 25px; margin-bottom: 10px; font-weight: bold;"">
        Will my data be used in future research?
      </h3>
      <p style=""margin-bottom: 25px;"">No personal identifiers will be collected in the data you provide us. Data will not be used in future research, and will be deleted after the required retention period.</p>

      <h3 style=""color: #333; font-size: 18px; margin-top: 25px; margin-bottom: 10px; font-weight: bold;"">
        What are my rights as a research participant?
      </h3>
      <p style=""margin-bottom: 15px;"">Participation in this study is voluntary. You do not have to answer any question you do not want to answer. If at any time and for any reason, you would prefer not to participate in this study, please feel free not to. If at any time you would like to stop participating, you are welcome to stop. You can take a break or stop altogether. You may withdraw from this study at any time, and you will not be penalized in any way for deciding to stop participation.</p>
      
      <p style=""margin-bottom: 25px;"">If you decide to withdraw from this study, any information collected from you before withdrawing will not be used, and your data will be deleted.</p>

      <h3 style=""color: #333; font-size: 18px; margin-top: 25px; margin-bottom: 10px; font-weight: bold;"">
        What if I am a University at Albany student or employee?
      </h3>
      <p style=""margin-bottom: 25px;"">You may choose not to participate or to stop participating in this research at any time. This will not affect your class standing, grades, employment, or any other aspects of your relationship with the University at Albany.</p>

      <h3 style=""color: #333; font-size: 18px; margin-top: 25px; margin-bottom: 10px; font-weight: bold;"">
        Who can I contact if I have questions or concerns about this research study?
      </h3>
      <p style=""margin-bottom: 15px;"">If you have questions, please feel free to stop and email the investigator, Ella Bremmer (ebremmer@albany.edu) or advisors, Pierce Johnson (pjohnson4@albany.edu) and Dr. Greg Cox (gecox@albany.edu). If you have questions later, you may also contact the researchers.</p>
      
      <p style=""margin-bottom: 10px;"">If you have any questions about your rights as a participant in this research, you can contact the following office at the University at Albany:</p>
      
      <p style=""margin-bottom: 5px; margin-left: 20px;"">Institutional Review Board</p>
      <p style=""margin-bottom: 5px; margin-left: 20px;"">University at Albany</p>
      <p style=""margin-bottom: 5px; margin-left: 20px;"">Office of Regulatory and Research Compliance</p>
      <p style=""margin-bottom: 5px; margin-left: 20px;"">1400 Washington Ave, Biology 227</p>
      <p style=""margin-bottom: 5px; margin-left: 20px;"">Albany, NY 12222</p>
      <p style=""margin-bottom: 5px; margin-left: 20px;"">Phone: 1-866-857-5459</p>
      <p style=""margin-bottom: 25px; margin-left: 20px;"">Email: rco@albany.edu</p>

      <h3 style=""color: #333; font-size: 18px; margin-top: 30px; margin-bottom: 10px; font-weight: bold;"">
        Consent
      </h3>
      <p style=""margin-bottom: 20px;"">I have read this form and the research study has been explained to me. I have been given the opportunity to ask questions and my questions have been answered. If I have additional questions, I have been told whom to contact. I agree to participate in the research study described above. I understand that I have the opportunity to download and save a copy of this form for my records.</p>

      <div style=""background-color: #f9f9f9; border: 2px solid #4CAF50; border-radius: 5px; padding: 20px; margin-top: 20px; margin-bottom: 20px;"">
        <p style=""margin-bottom: 15px; font-weight: bold;"">To save a copy of this consent form for your records, press Ctrl+P (Windows/Linux) or Cmd+P (Mac) and select ""Save as PDF"".</p>
        <p style=""margin-bottom: 0; font-weight: bold;"">By clicking ""I Agree"" below, I confirm that I agree to participate in the research study described above, and that doing so serves as my written signature consenting to take part in the study.</p>
      </div>
    </div>
  ","0","true","","","","","","","","","","","","","","","",""
"instructions","3","2.1.0","34665","78958","intro_instructions","6323","","","","f","[{""page_index"":0,""viewing_time"":6323}]","","","","","","","","","","","","","",""
"html-keyboard-response","4","2.1.0","36668","78958","intermediate_slide_demo","null","<p style=""font-size:4vw"">Demographic Questionnaire</p>","null","","","","","","","","","","","","","","","","",""
"survey-multi-choice","5","2.1.0","41646","78958","demographics_english","4977","","{""english"":""Strongly agree""}","","","","[0]","","","","","","","","","","","","",""
"survey-text","7","2.1.0","45071","78958","demographics_age","3423","","{""age"":""20""}","","","","","","","","","","","","","","","","",""
"survey-multi-select","9","2.1.0","50517","78958","demographics_gender","5444","","{""gender"":[""Man""]}","","","","[0]","","","","","","","","","","","","",""
"survey-multi-choice","11","2.1.0","54761","78958","demographics_race","4244","","{""race"":""White or Caucasian""}","","","","[0]","","","","","","","","","","","","",""
"html-keyboard-response","12","2.1.0","56764","78958","intermediate_slide_VS","null","<p style=""font-size:4vw"">Visual Search Task</p>","null","","","","","","","","","","","","","","","","",""
"preload","13","2.1.0","57296","78958","image_preload","","","","","","","","true","false","[]","[]","[]","","","","","","","",""
"html-button-response","14","2.1.0","70636","78958","vs_instructions","13340","<p>On the following screens, you will see a series of colored shapes (triangles, squares, and circles) appear.</p>
    <p>Please Press 'F' if there <strong>is</strong> a red triangle among the shapes you see.</p>
    <p>Press 'J' if there is <strong>not</strong> a red triangle among the shapes you see.</p>","0","","","","","","","","","","","","","","","","",""
"visual-search-circle","15","2.2.0","75102","78958","visual_search_trial","2952","","j","","","","","","","","","","null","blue_triangle","0","[""images/Blue_Triangle.png"",""images/Blue_Triangle.png"",""images/Blue_Triangle.png"",""images/Blue_Triangle.png"",""images/Blue_Triangle.png"",""images/Blue_Triangle.png"",""images/Blue_Triangle.png"",""images/Blue_Triangle.png"",""images/Blue_Triangle.png""]","true","[[49,25],[3,96],[13,181],[76,240],[161,244],[229,193],[249,109],[210,33],[131,0]]","false",""
"visual-search-circle","16","2.2.0","91181","78958","visual_search_trial","14567","","j","","","","","","","","","","null","red_blue_mix","0","[""images/Red_Circle.png"",""images/Red_Circle.png"",""images/Blue_Circle.png"",""images/Red_Circle.png"",""images/Blue_Triangle.png"",""images/Red_Circle.png"",""images/Blue_Triangle.png"",""images/Blue_Triangle.png"",""images/Red_Circle.png""]","true","[[11,177],[72,238],[157,245],[227,196],[249,114],[213,36],[135,0],[53,22],[4,92]]","false",""
"visual-search-circle","17","2.2.0","100791","78958","visual_search_trial","8102","","f","","","","","","","","","","null","red_circle","0","[""images/Red_Triangle.png"",""images/Red_Circle.png"",""images/Red_Circle.png""]","true","[[142,248],[223,48],[9,78]]","true",""
"visual-search-circle","18","2.2.0","103663","78958","visual_search_trial","1359","","j","","","","","","","","","","null","blue_triangle","0","[""images/Blue_Triangle.png"",""images/Blue_Triangle.png"",""images/Blue_Triangle.png""]","true","[[1,142],[201,223],[171,9]]","false",""
"visual-search-circle","19","2.2.0","105977","78958","visual_search_trial","806","","j","","","","","","","","","","null","red_circle","0","[""images/Red_Circle.png"",""images/Red_Circle.png"",""images/Red_Circle.png"",""images/Red_Circle.png"",""images/Red_Circle.png"",""images/Red_Circle.png""]","true","[[198,226],[249,111],[175,10],[51,23],[0,138],[74,239]]","false",""
"visual-search-circle","20","2.2.0","108775","78958","visual_search_trial","1294","","f","","","","","","","","","","null","red_blue_mix","0","[""images/Red_Triangle.png"",""images/Blue_Triangle.png"",""images/Blue_Circle.png"",""images/Blue_Triangle.png"",""images/Blue_Circle.png"",""images/Red_Circle.png""]","true","[[189,17],[64,15],[0,122],[60,232],[185,234],[249,127]]","true",""
"visual-search-circle","21","2.2.0","111284","78958","visual_search_trial","1002","","j","","","","","","","","","","null","red_circle","0","[""images/Red_Circle.png"",""images/Red_Circle.png"",""images/Red_Circle.png""]","true","[[142,1],[9,171],[223,201]]","false",""
"visual-search-circle","22","2.2.0","113637","78958","visual_search_trial","849","","f","","","","","","","","","","null","blue_triangle","0","[""images/Red_Triangle.png"",""images/Blue_Triangle.png"",""images/Blue_Triangle.png""]","true","[[234,185],[122,0],[17,189]]","true",""
"visual-search-circle","23","2.2.0","116033","78958","visual_search_trial","890","","f","","","","","","","","","","null","red_blue_mix","0","[""images/Red_Triangle.png"",""images/Red_Circle.png"",""images/Blue_Circle.png""]","true","[[4,90],[155,246],[214,38]]","true",""
"visual-search-circle","24","2.2.0","118139","78958","visual_search_trial","600","","f","","","","","","","","","","null","blue_triangle","0","[""images/Red_Triangle.png"",""images/Blue_Triangle.png"",""images/Blue_Triangle.png"",""images/Blue_Triangle.png"",""images/Blue_Triangle.png"",""images/Blue_Triangle.png"",""images/Blue_Triangle.png"",""images/Blue_Triangle.png"",""images/Blue_Triangle.png""]","true","[[234,185],[247,101],[203,27],[122,0],[42,30],[1,105],[17,189],[84,243],[169,241]]","true",""
"visual-search-circle","25","2.2.0","121173","78958","visual_search_trial","1522","","j","","","","","","","","","","null","red_blue_mix","0","[""images/Red_Circle.png"",""images/Blue_Triangle.png"",""images/Red_Circle.png"",""images/Blue_Triangle.png"",""images/Blue_Circle.png"",""images/Blue_Circle.png""]","true","[[9,171],[107,248],[223,201],[240,78],[142,1],[26,48]]","false",""
"visual-search-circle","26","2.2.0","123487","78958","visual_search_trial","800","","f","","","","","","","","","","null","red_circle","0","[""images/Red_Triangle.png"",""images/Red_Circle.png"",""images/Red_Circle.png"",""images/Red_Circle.png"",""images/Red_Circle.png"",""images/Red_Circle.png"",""images/Red_Circle.png"",""images/Red_Circle.png"",""images/Red_Circle.png""]","true","[[248,107],[208,32],[129,0],[48,26],[2,99],[14,183],[78,240],[163,243],[231,191]]","true",""
"visual-search-circle","27","2.2.0","125975","78958","visual_search_trial","976","","f","","","","","","","","","","null","blue_triangle","0","[""images/Red_Triangle.png"",""images/Blue_Triangle.png"",""images/Blue_Triangle.png"",""images/Blue_Triangle.png"",""images/Blue_Triangle.png"",""images/Blue_Triangle.png""]","true","[[48,223],[171,240],[248,142],[201,26],[78,9],[1,107]]","true",""
"visual-search-circle","28","2.2.0","128201","78958","visual_search_trial","710","","f","","","","","","","","","","null","red_circle","0","[""images/Red_Triangle.png"",""images/Red_Circle.png"",""images/Red_Circle.png"",""images/Red_Circle.png"",""images/Red_Circle.png"",""images/Red_Circle.png""]","true","[[46,222],[169,241],[248,144],[203,27],[80,8],[1,105]]","true",""
"visual-search-circle","29","2.2.0","130521","78958","visual_search_trial","808","","j","","","","","","","","","","null","red_blue_mix","0","[""images/Blue_Triangle.png"",""images/Blue_Circle.png"",""images/Blue_Circle.png""]","true","[[38,214],[246,155],[90,4]]","false",""
"visual-search-circle","30","2.2.0","132800","78958","visual_search_trial","766","","j","","","","","","","","","","null","blue_triangle","0","[""images/Blue_Triangle.png"",""images/Blue_Triangle.png"",""images/Blue_Triangle.png"",""images/Blue_Triangle.png"",""images/Blue_Triangle.png"",""images/Blue_Triangle.png""]","true","[[18,191],[129,249],[235,183],[231,58],[120,0],[14,66]]","false",""
"visual-search-circle","31","2.2.0","135293","78958","visual_search_trial","981","","j","","","","","","","","","","null","red_circle","0","[""images/Red_Circle.png"",""images/Red_Circle.png"",""images/Red_Circle.png"",""images/Red_Circle.png"",""images/Red_Circle.png"",""images/Red_Circle.png"",""images/Red_Circle.png"",""images/Red_Circle.png"",""images/Red_Circle.png""]","true","[[207,30],[127,0],[46,27],[2,101],[15,185],[80,241],[165,243],[232,189],[248,105]]","false",""
"visual-search-circle","32","2.2.0","137794","78958","visual_search_trial","989","","f","","","","","","","","","","null","red_blue_mix","0","[""images/Red_Triangle.png"",""images/Red_Circle.png"",""images/Red_Circle.png"",""images/Blue_Triangle.png"",""images/Blue_Triangle.png"",""images/Blue_Triangle.png"",""images/Blue_Triangle.png"",""images/Blue_Circle.png"",""images/Blue_Circle.png""]","true","[[86,243],[171,240],[235,183],[247,99],[201,26],[120,0],[41,32],[1,107],[18,191]]","true",""
"visual-search-circle","33","2.2.0","140099","78958","visual_search_trial","793","","j","","","","","","","","","","null","red_circle","1","[""images/Red_Circle.png"",""images/Red_Circle.png"",""images/Red_Circle.png"",""images/Red_Circle.png"",""images/Red_Circle.png"",""images/Red_Circle.png""]","true","[[193,229],[249,118],[181,13],[56,20],[0,131],[68,236]]","false",""
"visual-search-circle","34","2.2.0","144207","78958","visual_search_trial","2591","","j","","","","","","","","","","null","blue_triangle","1","[""images/Blue_Triangle.png"",""images/Blue_Triangle.png"",""images/Blue_Triangle.png"",""images/Blue_Triangle.png"",""images/Blue_Triangle.png"",""images/Blue_Triangle.png"",""images/Blue_Triangle.png"",""images/Blue_Triangle.png"",""images/Blue_Triangle.png""]","true","[[243,84],[189,17],[105,1],[30,42],[0,122],[27,203],[101,247],[185,234],[241,169]]","false",""
"visual-search-circle","35","2.2.0","146730","78958","visual_search_trial","1016","","f","","","","","","","","","","null","red_circle","1","[""images/Red_Triangle.png"",""images/Red_Circle.png"",""images/Red_Circle.png"",""images/Red_Circle.png"",""images/Red_Circle.png"",""images/Red_Circle.png"",""images/Red_Circle.png"",""images/Red_Circle.png"",""images/Red_Circle.png""]","true","[[248,107],[208,32],[129,0],[48,26],[2,99],[14,183],[78,240],[163,243],[231,191]]","true",""
"visual-search-circle","36","2.2.0","150326","78958","visual_search_trial","2082","","j","","","","","","","","","","null","red_blue_mix","1","[""images/Blue_Circle.png"",""images/Red_Circle.png"",""images/Blue_Triangle.png"",""images/Blue_Circle.png"",""images/Blue_Circle.png"",""images/Blue_Triangle.png"",""images/Red_Circle.png"",""images/Blue_Triangle.png"",""images/Blue_Triangle.png""]","true","[[3,153],[49,224],[131,249],[210,216],[249,140],[229,56],[161,5],[76,9],[13,68]]","false",""
"visual-search-circle","37","2.2.0","154583","78958","visual_search_trial","2744","","j","","","","","","","","","","null","blue_triangle","1","[""images/Blue_Triangle.png"",""images/Blue_Triangle.png"",""images/Blue_Triangle.png"",""images/Blue_Triangle.png"",""images/Blue_Triangle.png"",""images/Blue_Triangle.png""]","true","[[229,193],[236,68],[131,0],[20,56],[13,181],[118,249]]","false",""
"visual-search-circle","38","2.2.0","156739","78958","visual_search_trial","651","","f","","","","","","","","","","null","red_circle","1","[""images/Red_Triangle.png"",""images/Red_Circle.png"",""images/Red_Circle.png"",""images/Red_Circle.png"",""images/Red_Circle.png"",""images/Red_Circle.png""]","true","[[211,214],[246,94],[159,4],[38,35],[3,155],[90,245]]","true",""
"visual-search-circle","39","2.2.0","159899","78958","visual_search_trial","1643","","j","","","","","","","","","","null","blue_triangle","1","[""images/Blue_Triangle.png"",""images/Blue_Triangle.png"",""images/Blue_Triangle.png""]","true","[[101,2],[30,207],[243,165]]","false",""
"visual-search-circle","40","2.2.0","162188","78958","visual_search_trial","773","","j","","","","","","","","","","null","red_blue_mix","1","[""images/Red_Circle.png"",""images/Blue_Circle.png"",""images/Red_Circle.png"",""images/Blue_Triangle.png"",""images/Blue_Triangle.png"",""images/Red_Circle.png""]","true","[[41,32],[2,150],[86,243],[208,217],[247,99],[163,6]]","false",""
"visual-search-circle","41","2.2.0","164433","78958","visual_search_trial","734","","f","","","","","","","","","","null","blue_triangle","1","[""images/Red_Triangle.png"",""images/Blue_Triangle.png"",""images/Blue_Triangle.png"",""images/Blue_Triangle.png"",""images/Blue_Triangle.png"",""images/Blue_Triangle.png""]","true","[[138,249],[239,175],[226,51],[111,0],[10,74],[23,198]]","true",""
"visual-search-circle","42","2.2.0","167794","78958","visual_search_trial","1853","","j","","","","","","","","","","null","red_blue_mix","1","[""images/Blue_Circle.png"",""images/Blue_Circle.png"",""images/Blue_Triangle.png""]","true","[[217,208],[150,2],[6,163]]","false",""
"visual-search-circle","43","2.2.0","169935","78958","visual_search_trial","633","","f","","","","","","","","","","null","blue_triangle","1","[""images/Red_Triangle.png"",""images/Blue_Triangle.png"",""images/Blue_Triangle.png""]","true","[[20,193],[236,181],[118,0]]","true",""
"visual-search-circle","44","2.2.0","172130","78958","visual_search_trial","686","","j","","","","","","","","","","null","red_circle","1","[""images/Red_Circle.png"",""images/Red_Circle.png"",""images/Red_Circle.png""]","true","[[125,250],[233,62],[16,62]]","false",""
"visual-search-circle","45","2.2.0","174734","78958","visual_search_trial","1099","","f","","","","","","","","","","null","red_blue_mix","1","[""images/Red_Triangle.png"",""images/Blue_Circle.png"",""images/Red_Circle.png"",""images/Red_Circle.png"",""images/Red_Circle.png"",""images/Blue_Circle.png""]","true","[[12,179],[116,249],[228,194],[237,70],[133,0],[21,55]]","true",""
"visual-search-circle","46","2.2.0","176779","78958","visual_search_trial","541","","f","","","","","","","","","","null","red_circle","1","[""images/Red_Triangle.png"",""images/Red_Circle.png"",""images/Red_Circle.png""]","true","[[72,238],[249,114],[53,22]]","true",""
"visual-search-circle","47","2.2.0","178943","78958","visual_search_trial","645","","f","","","","","","","","","","null","red_blue_mix","1","[""images/Red_Triangle.png"",""images/Red_Circle.png"",""images/Red_Circle.png"",""images/Blue_Triangle.png"",""images/Red_Circle.png"",""images/Blue_Triangle.png"",""images/Red_Circle.png"",""images/Blue_Triangle.png"",""images/Blue_Circle.png""]","true","[[41,217],[120,249],[201,223],[247,150],[235,66],[171,9],[86,6],[18,58],[1,142]]","true",""
"visual-search-circle","48","2.2.0","181154","78958","visual_search_trial","702","","j","","","","","","","","","","null","red_circle","1","[""images/Red_Circle.png"",""images/Red_Circle.png"",""images/Red_Circle.png"",""images/Red_Circle.png"",""images/Red_Circle.png"",""images/Red_Circle.png"",""images/Red_Circle.png"",""images/Red_Circle.png"",""images/Red_Circle.png""]","true","[[245,159],[239,74],[179,12],[94,3],[23,51],[0,133],[35,211],[111,249],[194,228]]","false",""
"visual-search-circle","49","2.2.0","183360","78958","visual_search_trial","696","","f","","","","","","","","","","null","blue_triangle","1","[""images/Red_Triangle.png"",""images/Blue_Triangle.png"",""images/Blue_Triangle.png"",""images/Blue_Triangle.png"",""images/Blue_Triangle.png"",""images/Blue_Triangle.png"",""images/Blue_Triangle.png"",""images/Blue_Triangle.png"",""images/Blue_Triangle.png""]","true","[[22,196],[92,245],[177,238],[238,177],[245,92],[196,22],[114,0],[36,36],[0,114]]","true",""
"visual-search-circle","50","2.2.0","185529","78958","visual_search_trial","665","","f","","","","","","","","","","null","red_blue_mix","1","[""images/Red_Triangle.png"",""images/Red_Circle.png"",""images/Blue_Triangle.png""]","true","[[35,211],[245,159],[94,3]]","true",""
"html-keyboard-response","51","2.1.0","189532","78958","break","4002","<p>Great job so far! Please rest for a few seconds before continuing.</p>
                 <p>Press the <strong>V</strong> key on your keyboard to continue.</p>","v","","","","","","","","","","","","","","","","","V"
"visual-search-circle","52","2.2.0","192083","78958","visual_search_trial","1043","","j","","","","","","","","","","null","red_circle","2","[""images/Red_Circle.png"",""images/Red_Circle.png"",""images/Red_Circle.png""]","true","[[103,248],[242,82],[29,44]]","false",""
"visual-search-circle","53","2.2.0","195015","78958","visual_search_trial","1424","","j","","","","","","","","","","null","red_blue_mix","2","[""images/Red_Circle.png"",""images/Blue_Circle.png"",""images/Blue_Circle.png"",""images/Blue_Triangle.png"",""images/Red_Circle.png"",""images/Blue_Circle.png"",""images/Blue_Triangle.png"",""images/Blue_Triangle.png"",""images/Blue_Triangle.png""]","true","[[3,94],[12,179],[74,239],[159,245],[228,194],[249,111],[211,35],[133,0],[51,23]]","false",""
"visual-search-circle","54","2.2.0","197715","78958","visual_search_trial","1194","","f","","","","","","","","","","null","blue_triangle","2","[""images/Red_Triangle.png"",""images/Blue_Triangle.png"",""images/Blue_Triangle.png"",""images/Blue_Triangle.png"",""images/Blue_Triangle.png"",""images/Blue_Triangle.png"",""images/Blue_Triangle.png"",""images/Blue_Triangle.png"",""images/Blue_Triangle.png""]","true","[[207,219],[248,144],[232,60],[165,6],[80,8],[15,64],[2,148],[46,222],[127,249]]","true",""
"visual-search-circle","55","2.2.0","200185","78958","visual_search_trial","950","","f","","","","","","","","","","null","red_blue_mix","2","[""images/Red_Triangle.png"",""images/Blue_Triangle.png"",""images/Blue_Circle.png"",""images/Blue_Triangle.png"",""images/Blue_Circle.png"",""images/Red_Circle.png"",""images/Blue_Circle.png"",""images/Red_Circle.png"",""images/Red_Circle.png""]","true","[[64,15],[8,80],[6,165],[60,232],[144,248],[219,207],[249,127],[222,46],[148,2]]","true",""
"visual-search-circle","56","2.2.0","202366","78958","visual_search_trial","678","","f","","","","","","","","","","null","blue_triangle","2","[""images/Red_Triangle.png"",""images/Blue_Triangle.png"",""images/Blue_Triangle.png""]","true","[[78,9],[48,223],[248,142]]","true",""
"visual-search-circle","57","2.2.0","204995","78958","visual_search_trial","1122","","j","","","","","","","","","","null","red_blue_mix","2","[""images/Blue_Circle.png"",""images/Blue_Triangle.png"",""images/Blue_Circle.png"",""images/Red_Circle.png"",""images/Blue_Triangle.png"",""images/Red_Circle.png""]","true","[[51,23],[0,138],[74,239],[198,226],[249,111],[175,10]]","false",""
"visual-search-circle","58","2.2.0","207016","78958","visual_search_trial","506","","f","","","","","","","","","","null","red_circle","2","[""images/Red_Triangle.png"",""images/Red_Circle.png"",""images/Red_Circle.png"",""images/Red_Circle.png"",""images/Red_Circle.png"",""images/Red_Circle.png""]","true","[[4,157],[92,245],[213,213],[245,92],[157,4],[36,36]]","true",""
"visual-search-circle","59","2.2.0","209111","78958","visual_search_trial","586","","j","","","","","","","","","","null","blue_triangle","2","[""images/Blue_Triangle.png"",""images/Blue_Triangle.png"",""images/Blue_Triangle.png""]","true","[[142,248],[223,48],[9,78]]","false",""
"visual-search-circle","60","2.2.0","211231","78958","visual_search_trial","614","","f","","","","","","","","","","null","red_circle","2","[""images/Red_Triangle.png"",""images/Red_Circle.png"",""images/Red_Circle.png""]","true","[[248,142],[78,9],[48,223]]","true",""
"visual-search-circle","61","2.2.0","213340","78958","visual_search_trial","597","","j","","","","","","","","","","null","blue_triangle","2","[""images/Blue_Triangle.png"",""images/Blue_Triangle.png"",""images/Blue_Triangle.png"",""images/Blue_Triangle.png"",""images/Blue_Triangle.png"",""images/Blue_Triangle.png""]","true","[[9,171],[107,248],[223,201],[240,78],[142,1],[26,48]]","false",""
"visual-search-circle","62","2.2.0","215565","78958","visual_search_trial","717","","f","","","","","","","","","","null","red_blue_mix","2","[""images/Red_Triangle.png"",""images/Red_Circle.png"",""images/Blue_Triangle.png"",""images/Blue_Circle.png"",""images/Blue_Triangle.png"",""images/Red_Circle.png""]","true","[[233,62],[125,0],[16,62],[16,187],[125,250],[233,187]]","true",""
"visual-search-circle","63","2.2.0","217603","78958","visual_search_trial","527","","j","","","","","","","","","","null","red_circle","2","[""images/Red_Circle.png"",""images/Red_Circle.png"",""images/Red_Circle.png"",""images/Red_Circle.png"",""images/Red_Circle.png"",""images/Red_Circle.png""]","true","[[138,0],[23,51],[10,175],[111,249],[226,198],[239,74]]","false",""
"visual-search-circle","64","2.2.0","219713","78958","visual_search_trial","606","","j","","","","","","","","","","null","red_blue_mix","2","[""images/Blue_Circle.png"",""images/Blue_Circle.png"",""images/Red_Circle.png""]","true","[[23,51],[111,249],[239,74]]","false",""
"visual-search-circle","65","2.2.0","221721","78958","visual_search_trial","501","","j","","","","","","","","","","null","red_circle","2","[""images/Red_Circle.png"",""images/Red_Circle.png"",""images/Red_Circle.png"",""images/Red_Circle.png"",""images/Red_Circle.png"",""images/Red_Circle.png"",""images/Red_Circle.png"",""images/Red_Circle.png"",""images/Red_Circle.png""]","true","[[242,82],[187,16],[103,1],[29,44],[0,125],[29,205],[103,248],[187,233],[242,167]]","false",""
"visual-search-circle","66","2.2.0","223929","78958","visual_search_trial","697","","j","","","","","","","","","","null","blue_triangle","2","[""images/Blue_Triangle.png"",""images/Blue_Triangle.png"",""images/Blue_Triangle.png"",""images/Blue_Triangle.png"",""images/Blue_Triangle.png"",""images/Blue_Triangle.png"",""images/Blue_Triangle.png"",""images/Blue_Triangle.png"",""images/Blue_Triangle.png""]","true","[[8,169],[64,234],[148,247],[222,203],[249,122],[219,42],[144,1],[60,17],[6,84]]","false",""
"visual-search-circle","67","2.2.0","226012","78958","visual_search_trial","574","","f","","","","","","","","","","null","red_circle","2","[""images/Red_Triangle.png"",""images/Red_Circle.png"",""images/Red_Circle.png"",""images/Red_Circle.png"",""images/Red_Circle.png"",""images/Red_Circle.png"",""images/Red_Circle.png"",""images/Red_Circle.png"",""images/Red_Circle.png""]","true","[[35,211],[111,249],[194,228],[245,159],[239,74],[179,12],[94,3],[23,51],[0,133]]","true",""
"visual-search-circle","68","2.2.0","228068","78958","visual_search_trial","545","","f","","","","","","","","","","null","blue_triangle","2","[""images/Red_Triangle.png"",""images/Blue_Triangle.png"",""images/Blue_Triangle.png"",""images/Blue_Triangle.png"",""images/Blue_Triangle.png"",""images/Blue_Triangle.png""]","true","[[210,216],[246,96],[161,5],[39,33],[3,153],[88,244]]","true",""
"visual-search-circle","69","2.2.0","230095","78958","visual_search_trial","523","","f","","","","","","","","","","null","red_blue_mix","2","[""images/Red_Triangle.png"",""images/Blue_Triangle.png"",""images/Red_Circle.png""]","true","[[155,246],[214,38],[4,90]]","true",""
"visual-search-circle","70","2.2.0","232058","78958","visual_search_trial","456","","f","","","","","","","","","","null","blue_triangle","3","[""images/Red_Triangle.png"",""images/Blue_Triangle.png"",""images/Blue_Triangle.png""]","true","[[129,249],[231,58],[14,66]]","true",""
"visual-search-circle","71","2.2.0","234321","78958","visual_search_trial","754","","f","","","","","","","","","","null","red_blue_mix","3","[""images/Red_Triangle.png"",""images/Red_Circle.png"",""images/Blue_Triangle.png"",""images/Blue_Triangle.png"",""images/Red_Circle.png"",""images/Blue_Triangle.png"",""images/Blue_Triangle.png"",""images/Blue_Triangle.png"",""images/Blue_Triangle.png""]","true","[[249,111],[211,35],[133,0],[51,23],[3,94],[12,179],[74,239],[159,245],[228,194]]","true",""
"visual-search-circle","72","2.2.0","236738","78958","visual_search_trial","914","","j","","","","","","","","","","null","red_circle","3","[""images/Red_Circle.png"",""images/Red_Circle.png"",""images/Red_Circle.png"",""images/Red_Circle.png"",""images/Red_Circle.png"",""images/Red_Circle.png""]","true","[[234,185],[232,60],[122,0],[15,64],[17,189],[127,249]]","false",""
"visual-search-circle","73","2.2.0","239393","78958","visual_search_trial","1152","","f","","","","","","","","","","null","red_blue_mix","3","[""images/Red_Triangle.png"",""images/Blue_Circle.png"",""images/Blue_Circle.png"",""images/Blue_Circle.png"",""images/Blue_Circle.png"",""images/Blue_Triangle.png""]","true","[[150,2],[32,41],[6,163],[99,247],[217,208],[243,86]]","true",""
"visual-search-circle","74","2.2.0","241372","78958","visual_search_trial","476","","f","","","","","","","","","","null","red_circle","3","[""images/Red_Triangle.png"",""images/Red_Circle.png"",""images/Red_Circle.png"",""images/Red_Circle.png"",""images/Red_Circle.png"",""images/Red_Circle.png""]","true","[[44,29],[1,146],[82,242],[205,220],[248,103],[167,7]]","true",""
"visual-search-circle","75","2.2.0","243986","78958","visual_search_trial","1101","","j","","","","","","","","","","null","blue_triangle","3","[""images/Blue_Triangle.png"",""images/Blue_Triangle.png"",""images/Blue_Triangle.png"",""images/Blue_Triangle.png"",""images/Blue_Triangle.png"",""images/Blue_Triangle.png""]","true","[[70,237],[194,228],[249,116],[179,12],[55,21],[0,133]]","false",""
"visual-search-circle","76","2.2.0","246029","78958","visual_search_trial","535","","j","","","","","","","","","","null","red_circle","3","[""images/Red_Circle.png"",""images/Red_Circle.png"",""images/Red_Circle.png""]","true","[[227,196],[135,0],[11,177]]","false",""
"visual-search-circle","77","2.2.0","248456","78958","visual_search_trial","918","","j","","","","","","","","","","null","blue_triangle","3","[""images/Blue_Triangle.png"",""images/Blue_Triangle.png"",""images/Blue_Triangle.png"",""images/Blue_Triangle.png"",""images/Blue_Triangle.png"",""images/Blue_Triangle.png"",""images/Blue_Triangle.png"",""images/Blue_Triangle.png"",""images/Blue_Triangle.png""]","true","[[49,25],[3,96],[13,181],[76,240],[161,244],[229,193],[249,109],[210,33],[131,0]]","false",""
"visual-search-circle","78","2.2.0","250971","78958","visual_search_trial","1003","","j","","","","","","","","","","null","red_blue_mix","3","[""images/Red_Circle.png"",""images/Blue_Triangle.png"",""images/Blue_Triangle.png""]","true","[[148,247],[219,42],[6,84]]","false",""
"visual-search-circle","79","2.2.0","253051","78958","visual_search_trial","565","","j","","","","","","","","","","null","blue_triangle","3","[""images/Blue_Triangle.png"",""images/Blue_Triangle.png"",""images/Blue_Triangle.png""]","true","[[210,216],[161,5],[3,153]]","false",""
"visual-search-circle","80","2.2.0","255737","78958","visual_search_trial","1178","","j","","","","","","","","","","null","red_blue_mix","3","[""images/Blue_Triangle.png"",""images/Blue_Circle.png"",""images/Blue_Circle.png"",""images/Red_Circle.png"",""images/Blue_Circle.png"",""images/Blue_Triangle.png""]","true","[[248,107],[171,9],[48,26],[1,142],[78,240],[201,223]]","false",""
"visual-search-circle","81","2.2.0","257799","78958","visual_search_trial","554","","j","","","","","","","","","","null","red_circle","3","[""images/Red_Circle.png"",""images/Red_Circle.png"",""images/Red_Circle.png"",""images/Red_Circle.png"",""images/Red_Circle.png"",""images/Red_Circle.png"",""images/Red_Circle.png"",""images/Red_Circle.png"",""images/Red_Circle.png""]","true","[[101,247],[185,234],[241,169],[243,84],[189,17],[105,1],[30,42],[0,122],[27,203]]","false",""
"visual-search-circle","82","2.2.0","259795","78958","visual_search_trial","487","","f","","","","","","","","","","null","red_blue_mix","3","[""images/Red_Triangle.png"",""images/Red_Circle.png"",""images/Blue_Triangle.png""]","true","[[217,41],[6,86],[150,247]]","true",""
"visual-search-circle","83","2.2.0","261810","78958","visual_search_trial","505","","f","","","","","","","","","","null","red_circle","3","[""images/Red_Triangle.png"",""images/Red_Circle.png"",""images/Red_Circle.png""]","true","[[56,20],[68,236],[249,118]]","true",""
"visual-search-circle","84","2.2.0","264836","78958","visual_search_trial","1521","","j","","","","","","","","","","null","red_blue_mix","3","[""images/Blue_Circle.png"",""images/Blue_Circle.png"",""images/Blue_Triangle.png"",""images/Blue_Circle.png"",""images/Red_Circle.png"",""images/Blue_Triangle.png"",""images/Blue_Circle.png"",""images/Blue_Triangle.png"",""images/Blue_Circle.png""]","true","[[99,2],[26,48],[0,129],[32,208],[107,248],[191,231],[243,163],[240,78],[183,14]]","false",""
"visual-search-circle","85","2.2.0","269557","78958","visual_search_trial","3207","","f","","","","","","","","","","null","blue_triangle","3","[""images/Red_Triangle.png"",""images/Blue_Triangle.png"",""images/Blue_Triangle.png"",""images/Blue_Triangle.png"",""images/Blue_Triangle.png"",""images/Blue_Triangle.png""]","true","[[58,231],[183,235],[249,129],[191,18],[66,14],[0,120]]","true",""
"visual-search-circle","86","2.2.0","271505","78958","visual_search_trial","442","","f","","","","","","","","","","null","red_circle","3","[""images/Red_Triangle.png"",""images/Red_Circle.png"",""images/Red_Circle.png"",""images/Red_Circle.png"",""images/Red_Circle.png"",""images/Red_Circle.png"",""images/Red_Circle.png"",""images/Red_Circle.png"",""images/Red_Circle.png""]","true","[[7,82],[7,167],[62,233],[146,248],[220,205],[250,125],[220,44],[146,1],[62,16]]","true",""
"visual-search-circle","87","2.2.0","273647","78958","visual_search_trial","629","","f","","","","","","","","","","null","blue_triangle","3","[""images/Red_Triangle.png"",""images/Blue_Triangle.png"",""images/Blue_Triangle.png"",""images/Blue_Triangle.png"",""images/Blue_Triangle.png"",""images/Blue_Triangle.png"",""images/Blue_Triangle.png"",""images/Blue_Triangle.png"",""images/Blue_Triangle.png""]","true","[[227,196],[249,114],[213,36],[135,0],[53,22],[4,92],[11,177],[72,238],[157,245]]","true",""
"html-keyboard-response","88","2.1.0","276933","78958","break","3284","<p>Great job so far! Please rest for a few seconds before continuing.</p>
                 <p>Press the <strong>E</strong> key on your keyboard to continue.</p>","e","","","","","","","","","","","","","","","","","E"
"visual-search-circle","89","2.2.0","280317","78958","visual_search_trial","1872","","f","","","","","","","","","","null","red_circle","4","[""images/Red_Triangle.png"",""images/Red_Circle.png"",""images/Red_Circle.png""]","true","[[249,122],[60,17],[64,234]]","true",""
"visual-search-circle","90","2.2.0","282406","78958","visual_search_trial","571","","j","","","","","","","","","","null","blue_triangle","4","[""images/Blue_Triangle.png"",""images/Blue_Triangle.png"",""images/Blue_Triangle.png"",""images/Blue_Triangle.png"",""images/Blue_Triangle.png"",""images/Blue_Triangle.png"",""images/Blue_Triangle.png"",""images/Blue_Triangle.png"",""images/Blue_Triangle.png""]","true","[[118,249],[200,224],[246,153],[236,68],[173,9],[88,5],[20,56],[0,140],[39,216]]","false",""
"visual-search-circle","91","2.2.0","284582","78958","visual_search_trial","669","","f","","","","","","","","","","null","red_blue_mix","4","[""images/Red_Triangle.png"",""images/Red_Circle.png"",""images/Blue_Triangle.png"",""images/Red_Circle.png"",""images/Red_Circle.png"",""images/Blue_Circle.png""]","true","[[53,227],[177,238],[249,135],[196,22],[72,11],[0,114]]","true",""
"visual-search-circle","92","2.2.0","286760","78958","visual_search_trial","670","","f","","","","","","","","","","null","blue_triangle","4","[""images/Red_Triangle.png"",""images/Blue_Triangle.png"",""images/Blue_Triangle.png"",""images/Blue_Triangle.png"",""images/Blue_Triangle.png"",""images/Blue_Triangle.png""]","true","[[144,1],[27,46],[8,169],[105,248],[222,203],[241,80]]","true",""
"visual-search-circle","93","2.2.0","288769","78958","visual_search_trial","503","","j","","","","","","","","","","null","red_circle","4","[""images/Red_Circle.png"",""images/Red_Circle.png"",""images/Red_Circle.png"",""images/Red_Circle.png"",""images/Red_Circle.png"",""images/Red_Circle.png""]","true","[[210,33],[88,5],[3,96],[39,216],[161,244],[246,153]]","false",""
"visual-search-circle","94","2.2.0","291075","78958","visual_search_trial","796","","j","","","","","","","","","","null","red_blue_mix","4","[""images/Blue_Triangle.png"",""images/Blue_Circle.png"",""images/Blue_Triangle.png""]","true","[[9,171],[223,201],[142,1]]","false",""
"visual-search-circle","95","2.2.0","293343","78958","visual_search_trial","756","","j","","","","","","","","","","null","red_circle","4","[""images/Red_Circle.png"",""images/Red_Circle.png"",""images/Red_Circle.png"",""images/Red_Circle.png"",""images/Red_Circle.png"",""images/Red_Circle.png"",""images/Red_Circle.png"",""images/Red_Circle.png"",""images/Red_Circle.png""]","true","[[177,11],[92,4],[22,53],[0,135],[36,213],[114,249],[196,227],[245,157],[238,72]]","false",""
"visual-search-circle","96","2.2.0","295845","78958","visual_search_trial","993","","f","","","","","","","","","","null","blue_triangle","4","[""images/Red_Triangle.png"",""images/Blue_Triangle.png"",""images/Blue_Triangle.png"",""images/Blue_Triangle.png"",""images/Blue_Triangle.png"",""images/Blue_Triangle.png"",""images/Blue_Triangle.png"",""images/Blue_Triangle.png"",""images/Blue_Triangle.png""]","true","[[70,237],[155,246],[226,198],[249,116],[214,38],[138,0],[55,21],[4,90],[10,175]]","true",""
"visual-search-circle","97","2.2.0","298266","78958","visual_search_trial","910","","f","","","","","","","","","","null","red_blue_mix","4","[""images/Red_Triangle.png"",""images/Blue_Circle.png"",""images/Red_Circle.png"",""images/Blue_Circle.png"",""images/Red_Circle.png"",""images/Blue_Triangle.png"",""images/Blue_Circle.png"",""images/Blue_Circle.png"",""images/Blue_Triangle.png""]","true","[[107,248],[191,231],[243,163],[240,78],[183,14],[99,2],[26,48],[0,129],[32,208]]","true",""
"visual-search-circle","98","2.2.0","300304","78958","visual_search_trial","532","","f","","","","","","","","","","null","red_circle","4","[""images/Red_Triangle.png"",""images/Red_Circle.png"",""images/Red_Circle.png"",""images/Red_Circle.png"",""images/Red_Circle.png"",""images/Red_Circle.png""]","true","[[247,101],[165,6],[42,30],[2,148],[84,243],[207,219]]","true",""
"visual-search-circle","99","2.2.0","302690","78958","visual_search_trial","874","","j","","","","","","","","","","null","red_blue_mix","4","[""images/Blue_Triangle.png"",""images/Blue_Triangle.png"",""images/Blue_Circle.png"",""images/Red_Circle.png"",""images/Blue_Circle.png"",""images/Red_Circle.png"",""images/Red_Circle.png"",""images/Blue_Circle.png"",""images/Blue_Triangle.png""]","true","[[55,21],[4,90],[10,175],[70,237],[155,246],[226,198],[249,116],[214,38],[138,0]]","false",""
"visual-search-circle","100","2.2.0","304692","78958","visual_search_trial","497","","j","","","","","","","","","","null","blue_triangle","4","[""images/Blue_Triangle.png"",""images/Blue_Triangle.png"",""images/Blue_Triangle.png""]","true","[[80,241],[248,105],[46,27]]","false",""
"visual-search-circle","101","2.2.0","306717","78958","visual_search_trial","516","","f","","","","","","","","","","null","red_blue_mix","4","[""images/Red_Triangle.png"",""images/Red_Circle.png"",""images/Red_Circle.png""]","true","[[49,224],[249,140],[76,9]]","true",""
"visual-search-circle","102","2.2.0","308826","78958","visual_search_trial","601","","f","","","","","","","","","","null","red_circle","4","[""images/Red_Triangle.png"",""images/Red_Circle.png"",""images/Red_Circle.png"",""images/Red_Circle.png"",""images/Red_Circle.png"",""images/Red_Circle.png"",""images/Red_Circle.png"",""images/Red_Circle.png"",""images/Red_Circle.png""]","true","[[173,240],[236,181],[246,96],[200,25],[118,0],[39,33],[0,109],[20,193],[88,244]]","true",""
"visual-search-circle","103","2.2.0","310849","78958","visual_search_trial","520","","j","","","","","","","","","","null","blue_triangle","4","[""images/Blue_Triangle.png"",""images/Blue_Triangle.png"",""images/Blue_Triangle.png"",""images/Blue_Triangle.png"",""images/Blue_Triangle.png"",""images/Blue_Triangle.png""]","true","[[243,86],[150,2],[32,41],[6,163],[99,247],[217,208]]","false",""
"visual-search-circle","104","2.2.0","312892","78958","visual_search_trial","538","","j","","","","","","","","","","null","red_circle","4","[""images/Red_Circle.png"",""images/Red_Circle.png"",""images/Red_Circle.png""]","true","[[247,150],[86,6],[41,217]]","false",""
"visual-search-circle","105","2.2.0","314980","78958","visual_search_trial","582","","j","","","","","","","","","","null","red_blue_mix","4","[""images/Red_Circle.png"",""images/Red_Circle.png"",""images/Blue_Circle.png"",""images/Red_Circle.png"",""images/Blue_Circle.png"",""images/Blue_Triangle.png""]","true","[[0,118],[56,229],[181,236],[249,131],[193,20],[68,13]]","false",""
"visual-search-circle","106","2.2.0","316965","78958","visual_search_trial","479","","f","","","","","","","","","","null","blue_triangle","4","[""images/Red_Triangle.png"",""images/Blue_Triangle.png"",""images/Blue_Triangle.png""]","true","[[207,219],[165,6],[2,148]]","true",""
"visual-search-circle","107","2.2.0","318931","78958","visual_search_trial","450","","f","","","","","","","","","","null","red_blue_mix","5","[""images/Red_Triangle.png"",""images/Blue_Circle.png"",""images/Red_Circle.png""]","true","[[203,222],[169,8],[1,144]]","true",""
"visual-search-circle","108","2.2.0","320860","78958","visual_search_trial","413","","j","","","","","","","","","","null","blue_triangle","5","[""images/Blue_Triangle.png"",""images/Blue_Triangle.png"",""images/Blue_Triangle.png"",""images/Blue_Triangle.png"",""images/Blue_Triangle.png"",""images/Blue_Triangle.png"",""images/Blue_Triangle.png"",""images/Blue_Triangle.png"",""images/Blue_Triangle.png""]","true","[[70,237],[155,246],[226,198],[249,116],[214,38],[138,0],[55,21],[4,90],[10,175]]","false",""
"visual-search-circle","109","2.2.0","323463","78958","visual_search_trial","1098","","j","","","","","","","","","","null","red_circle","5","[""images/Red_Circle.png"",""images/Red_Circle.png"",""images/Red_Circle.png""]","true","[[122,249],[234,64],[17,60]]","false",""
"visual-search-circle","110","2.2.0","325552","78958","visual_search_trial","577","","f","","","","","","","","","","null","blue_triangle","5","[""images/Red_Triangle.png"",""images/Blue_Triangle.png"",""images/Blue_Triangle.png"",""images/Blue_Triangle.png"",""images/Blue_Triangle.png"",""images/Blue_Triangle.png"",""images/Blue_Triangle.png"",""images/Blue_Triangle.png"",""images/Blue_Triangle.png""]","true","[[36,213],[114,249],[196,227],[245,157],[238,72],[177,11],[92,4],[22,53],[0,135]]","true",""
"visual-search-circle","111","2.2.0","328029","78958","visual_search_trial","973","","j","","","","","","","","","","null","red_blue_mix","5","[""images/Blue_Triangle.png"",""images/Blue_Circle.png"",""images/Blue_Triangle.png""]","true","[[16,187],[233,187],[125,0]]","false",""
"visual-search-circle","112","2.2.0","330173","78958","visual_search_trial","632","","j","","","","","","","","","","null","red_circle","5","[""images/Red_Circle.png"",""images/Red_Circle.png"",""images/Red_Circle.png"",""images/Red_Circle.png"",""images/Red_Circle.png"",""images/Red_Circle.png"",""images/Red_Circle.png"",""images/Red_Circle.png"",""images/Red_Circle.png""]","true","[[0,114],[22,196],[92,245],[177,238],[238,177],[245,92],[196,22],[114,0],[36,36]]","false",""
"visual-search-circle","113","2.2.0","332246","78958","visual_search_trial","563","","f","","","","","","","","","","null","blue_triangle","5","[""images/Red_Triangle.png"",""images/Blue_Triangle.png"",""images/Blue_Triangle.png""]","true","[[25,49],[109,249],[240,76]]","true",""
"visual-search-circle","114","2.2.0","334327","78958","visual_search_trial","577","","f","","","","","","","","","","null","red_blue_mix","5","[""images/Red_Triangle.png"",""images/Red_Circle.png"",""images/Red_Circle.png"",""images/Blue_Triangle.png"",""images/Blue_Triangle.png"",""images/Blue_Triangle.png""]","true","[[224,200],[240,76],[140,0],[25,49],[9,173],[109,249]]","true",""
"visual-search-circle","115","2.2.0","336366","78958","visual_search_trial","532","","j","","","","","","","","","","null","blue_triangle","5","[""images/Blue_Triangle.png"",""images/Blue_Triangle.png"",""images/Blue_Triangle.png"",""images/Blue_Triangle.png"",""images/Blue_Triangle.png"",""images/Blue_Triangle.png""]","true","[[9,76],[25,200],[140,249],[240,173],[224,49],[109,0]]","false",""
"visual-search-circle","116","2.2.0","338522","78958","visual_search_trial","642","","f","","","","","","","","","","null","red_blue_mix","5","[""images/Red_Triangle.png"",""images/Blue_Triangle.png"",""images/Blue_Circle.png"",""images/Red_Circle.png"",""images/Red_Circle.png"",""images/Blue_Triangle.png"",""images/Blue_Circle.png"",""images/Red_Circle.png"",""images/Blue_Triangle.png""]","true","[[210,33],[131,0],[49,25],[3,96],[13,181],[76,240],[161,244],[229,193],[249,109]]","true",""
"visual-search-circle","117","2.2.0","340486","78958","visual_search_trial","454","","f","","","","","","","","","","null","red_circle","5","[""images/Red_Triangle.png"",""images/Red_Circle.png"",""images/Red_Circle.png"",""images/Red_Circle.png"",""images/Red_Circle.png"",""images/Red_Circle.png""]","true","[[240,76],[140,0],[25,49],[9,173],[109,249],[224,200]]","true",""
"visual-search-circle","118","2.2.0","342665","78958","visual_search_trial","669","","j","","","","","","","","","","null","red_blue_mix","5","[""images/Blue_Triangle.png"",""images/Blue_Circle.png"",""images/Blue_Triangle.png"",""images/Blue_Triangle.png"",""images/Red_Circle.png"",""images/Blue_Triangle.png""]","true","[[205,29],[82,7],[1,103],[44,220],[167,242],[248,146]]","false",""
"visual-search-circle","119","2.2.0","344653","78958","visual_search_trial","481","","f","","","","","","","","","","null","red_circle","5","[""images/Red_Triangle.png"",""images/Red_Circle.png"",""images/Red_Circle.png""]","true","[[4,90],[155,246],[214,38]]","true",""
"visual-search-circle","120","2.2.0","346857","78958","visual_search_trial","687","","j","","","","","","","","","","null","red_blue_mix","5","[""images/Blue_Circle.png"",""images/Blue_Circle.png"",""images/Red_Circle.png"",""images/Blue_Triangle.png"",""images/Blue_Circle.png"",""images/Red_Circle.png"",""images/Red_Circle.png"",""images/Blue_Triangle.png"",""images/Red_Circle.png""]","true","[[165,6],[80,8],[15,64],[2,148],[46,222],[127,249],[207,219],[248,144],[232,60]]","false",""
"visual-search-circle","121","2.2.0","348921","78958","visual_search_trial","558","","j","","","","","","","","","","null","blue_triangle","5","[""images/Blue_Triangle.png"",""images/Blue_Triangle.png"",""images/Blue_Triangle.png""]","true","[[14,183],[231,191],[129,0]]","false",""
"visual-search-circle","122","2.2.0","351083","78958","visual_search_trial","655","","f","","","","","","","","","","null","red_circle","5","[""images/Red_Triangle.png"",""images/Red_Circle.png"",""images/Red_Circle.png"",""images/Red_Circle.png"",""images/Red_Circle.png"",""images/Red_Circle.png"",""images/Red_Circle.png"",""images/Red_Circle.png"",""images/Red_Circle.png""]","true","[[227,196],[249,114],[213,36],[135,0],[53,22],[4,92],[11,177],[72,238],[157,245]]","true",""
"visual-search-circle","123","2.2.0","353150","78958","visual_search_trial","558","","f","","","","","","","","","","null","blue_triangle","5","[""images/Red_Triangle.png"",""images/Blue_Triangle.png"",""images/Blue_Triangle.png"",""images/Blue_Triangle.png"",""images/Blue_Triangle.png"",""images/Blue_Triangle.png""]","true","[[78,240],[201,223],[248,107],[171,9],[48,26],[1,142]]","true",""
"visual-search-circle","124","2.2.0","355179","78958","visual_search_trial","524","","j","","","","","","","","","","null","red_circle","5","[""images/Red_Circle.png"",""images/Red_Circle.png"",""images/Red_Circle.png"",""images/Red_Circle.png"",""images/Red_Circle.png"",""images/Red_Circle.png""]","true","[[213,213],[245,92],[157,4],[36,36],[4,157],[92,245]]","false",""
"html-keyboard-response","125","2.1.0","362266","78958","break","7086","<p>Great job so far! Please rest for a few seconds before continuing.</p>
                 <p>Press the <strong>C</strong> key on your keyboard to continue.</p>","c","","","","","","","","","","","","","","","","","C"
"visual-search-circle","126","2.2.0","364608","78958","visual_search_trial","837","","f","","","","","","","","","","null","red_blue_mix","6","[""images/Red_Triangle.png"",""images/Red_Circle.png"",""images/Blue_Circle.png""]","true","[[3,94],[159,245],[211,35]]","true",""
"visual-search-circle","127","2.2.0","366620","78958","visual_search_trial","504","","f","","","","","","","","","","null","blue_triangle","6","[""images/Red_Triangle.png"",""images/Blue_Triangle.png"",""images/Blue_Triangle.png"",""images/Blue_Triangle.png"",""images/Blue_Triangle.png"",""images/Blue_Triangle.png"",""images/Blue_Triangle.png"",""images/Blue_Triangle.png"",""images/Blue_Triangle.png""]","true","[[26,48],[0,129],[32,208],[107,248],[191,231],[243,163],[240,78],[183,14],[99,2]]","true",""
"visual-search-circle","128","2.2.0","368983","78958","visual_search_trial","854","","j","","","","","","","","","","null","red_blue_mix","6","[""images/Blue_Circle.png"",""images/Red_Circle.png"",""images/Blue_Triangle.png"",""images/Blue_Circle.png"",""images/Blue_Circle.png"",""images/Blue_Triangle.png"",""images/Red_Circle.png"",""images/Red_Circle.png"",""images/Blue_Circle.png""]","true","[[140,249],[216,210],[249,131],[224,49],[153,3],[68,13],[9,76],[5,161],[56,229]]","false",""
"visual-search-circle","129","2.2.0","371023","78958","visual_search_trial","531","","j","","","","","","","","","","null","red_circle","6","[""images/Red_Circle.png"",""images/Red_Circle.png"",""images/Red_Circle.png"",""images/Red_Circle.png"",""images/Red_Circle.png"",""images/Red_Circle.png"",""images/Red_Circle.png"",""images/Red_Circle.png"",""images/Red_Circle.png""]","true","[[179,237],[239,175],[245,90],[194,21],[111,0],[35,38],[0,116],[23,198],[94,246]]","false",""
"visual-search-circle","130","2.2.0","373121","78958","visual_search_trial","590","","j","","","","","","","","","","null","red_blue_mix","6","[""images/Red_Circle.png"",""images/Blue_Circle.png"",""images/Red_Circle.png""]","true","[[96,3],[33,210],[244,161]]","false",""
"visual-search-circle","131","2.2.0","375273","78958","visual_search_trial","645","","f","","","","","","","","","","null","blue_triangle","6","[""images/Red_Triangle.png"",""images/Blue_Triangle.png"",""images/Blue_Triangle.png""]","true","[[49,25],[76,240],[249,109]]","true",""
"visual-search-circle","132","2.2.0","377394","78958","visual_search_trial","614","","j","","","","","","","","","","null","red_circle","6","[""images/Red_Circle.png"",""images/Red_Circle.png"",""images/Red_Circle.png"",""images/Red_Circle.png"",""images/Red_Circle.png"",""images/Red_Circle.png""]","true","[[129,0],[18,58],[14,183],[120,249],[231,191],[235,66]]","false",""
"visual-search-circle","133","2.2.0","379548","78958","visual_search_trial","635","","f","","","","","","","","","","null","red_blue_mix","6","[""images/Red_Triangle.png"",""images/Blue_Circle.png"",""images/Red_Circle.png"",""images/Blue_Triangle.png"",""images/Blue_Triangle.png"",""images/Red_Circle.png""]","true","[[109,0],[9,76],[25,200],[140,249],[240,173],[224,49]]","true",""
"visual-search-circle","134","2.2.0","381705","78958","visual_search_trial","653","","j","","","","","","","","","","null","red_circle","6","[""images/Red_Circle.png"",""images/Red_Circle.png"",""images/Red_Circle.png""]","true","[[80,8],[46,222],[248,144]]","false",""
"visual-search-circle","135","2.2.0","383738","78958","visual_search_trial","528","","j","","","","","","","","","","null","blue_triangle","6","[""images/Blue_Triangle.png"",""images/Blue_Triangle.png"",""images/Blue_Triangle.png""]","true","[[9,173],[224,200],[140,0]]","false",""
"visual-search-circle","136","2.2.0","385821","78958","visual_search_trial","566","","f","","","","","","","","","","null","red_circle","6","[""images/Red_Triangle.png"",""images/Red_Circle.png"",""images/Red_Circle.png"",""images/Red_Circle.png"",""images/Red_Circle.png"",""images/Red_Circle.png"",""images/Red_Circle.png"",""images/Red_Circle.png"",""images/Red_Circle.png""]","true","[[133,0],[51,23],[3,94],[12,179],[74,239],[159,245],[228,194],[249,111],[211,35]]","true",""
"visual-search-circle","137","2.2.0","387997","78958","visual_search_trial","659","","j","","","","","","","","","","null","blue_triangle","6","[""images/Blue_Triangle.png"",""images/Blue_Triangle.png"",""images/Blue_Triangle.png"",""images/Blue_Triangle.png"",""images/Blue_Triangle.png"",""images/Blue_Triangle.png"",""images/Blue_Triangle.png"",""images/Blue_Triangle.png"",""images/Blue_Triangle.png""]","true","[[4,92],[11,177],[72,238],[157,245],[227,196],[249,114],[213,36],[135,0],[53,22]]","false",""
"visual-search-circle","138","2.2.0","390261","78958","visual_search_trial","757","","j","","","","","","","","","","null","red_blue_mix","6","[""images/Blue_Triangle.png"",""images/Blue_Triangle.png"",""images/Blue_Triangle.png"",""images/Red_Circle.png"",""images/Red_Circle.png"",""images/Blue_Triangle.png""]","true","[[240,78],[142,1],[26,48],[9,171],[107,248],[223,201]]","false",""
"visual-search-circle","139","2.2.0","392441","78958","visual_search_trial","672","","f","","","","","","","","","","null","blue_triangle","6","[""images/Red_Triangle.png"",""images/Blue_Triangle.png"",""images/Blue_Triangle.png"",""images/Blue_Triangle.png"",""images/Blue_Triangle.png"",""images/Blue_Triangle.png""]","true","[[16,187],[125,250],[233,187],[233,62],[125,0],[16,62]]","true",""
"visual-search-circle","140","2.2.0","394483","78958","visual_search_trial","535","","f","","","","","","","","","","null","red_circle","6","[""images/Red_Triangle.png"",""images/Red_Circle.png"",""images/Red_Circle.png"",""images/Red_Circle.png"",""images/Red_Circle.png"",""images/Red_Circle.png""]","true","[[82,242],[205,220],[248,103],[167,7],[44,29],[1,146]]","true",""
"visual-search-circle","141","2.2.0","396647","78958","visual_search_trial","656","","f","","","","","","","","","","null","red_blue_mix","6","[""images/Red_Triangle.png"",""images/Red_Circle.png"",""images/Blue_Circle.png"",""images/Blue_Circle.png"",""images/Blue_Circle.png"",""images/Blue_Circle.png"",""images/Blue_Triangle.png"",""images/Red_Circle.png"",""images/Blue_Triangle.png""]","true","[[90,4],[21,55],[0,138],[38,214],[116,249],[198,226],[246,155],[237,70],[175,10]]","true",""
"visual-search-circle","142","2.2.0","398892","78958","visual_search_trial","729","","f","","","","","","","","","","null","red_circle","6","[""images/Red_Triangle.png"",""images/Red_Circle.png"",""images/Red_Circle.png""]","true","[[191,18],[0,120],[183,235]]","true",""
"visual-search-circle","143","2.2.0","401187","78958","visual_search_trial","786","","j","","","","","","","","","","null","blue_triangle","6","[""images/Blue_Triangle.png"",""images/Blue_Triangle.png"",""images/Blue_Triangle.png"",""images/Blue_Triangle.png"",""images/Blue_Triangle.png"",""images/Blue_Triangle.png""]","true","[[82,7],[1,103],[44,220],[167,242],[248,146],[205,29]]","false",""
"visual-search-circle","144","2.2.0","403565","78958","visual_search_trial","874","","f","","","","","","","","","","null","red_circle","7","[""images/Red_Triangle.png"",""images/Red_Circle.png"",""images/Red_Circle.png""]","true","[[210,216],[161,5],[3,153]]","true",""
"visual-search-circle","145","2.2.0","405631","78958","visual_search_trial","550","","f","","","","","","","","","","null","blue_triangle","7","[""images/Red_Triangle.png"",""images/Blue_Triangle.png"",""images/Blue_Triangle.png"",""images/Blue_Triangle.png"",""images/Blue_Triangle.png"",""images/Blue_Triangle.png""]","true","[[64,15],[0,122],[60,232],[185,234],[249,127],[189,17]]","true",""
"visual-search-circle","146","2.2.0","407680","78958","visual_search_trial","543","","f","","","","","","","","","","null","red_circle","7","[""images/Red_Triangle.png"",""images/Red_Circle.png"",""images/Red_Circle.png"",""images/Red_Circle.png"",""images/Red_Circle.png"",""images/Red_Circle.png""]","true","[[32,41],[6,163],[99,247],[217,208],[243,86],[150,2]]","true",""
"visual-search-circle","147","2.2.0","409751","78958","visual_search_trial","565","","j","","","","","","","","","","null","blue_triangle","7","[""images/Blue_Triangle.png"",""images/Blue_Triangle.png"",""images/Blue_Triangle.png""]","true","[[0,140],[200,224],[173,9]]","false",""
"visual-search-circle","148","2.2.0","411897","78958","visual_search_trial","633","","j","","","","","","","","","","null","red_blue_mix","7","[""images/Red_Circle.png"",""images/Blue_Triangle.png"",""images/Blue_Triangle.png""]","true","[[30,42],[101,247],[243,84]]","false",""
"visual-search-circle","149","2.2.0","413983","78958","visual_search_trial","578","","j","","","","","","","","","","null","red_circle","7","[""images/Red_Circle.png"",""images/Red_Circle.png"",""images/Red_Circle.png""]","true","[[187,16],[0,125],[187,233]]","false",""
"visual-search-circle","150","2.2.0","416726","78958","visual_search_trial","1238","","f","","","","","","","","","","null","red_blue_mix","7","[""images/Red_Triangle.png"",""images/Blue_Triangle.png"",""images/Blue_Triangle.png"",""images/Blue_Triangle.png"",""images/Blue_Triangle.png"",""images/Red_Circle.png""]","true","[[247,101],[165,6],[42,30],[2,148],[84,243],[207,219]]","true",""
"visual-search-circle","151","2.2.0","418831","78958","visual_search_trial","597","","f","","","","","","","","","","null","blue_triangle","7","[""images/Red_Triangle.png"",""images/Blue_Triangle.png"",""images/Blue_Triangle.png"",""images/Blue_Triangle.png"",""images/Blue_Triangle.png"",""images/Blue_Triangle.png"",""images/Blue_Triangle.png"",""images/Blue_Triangle.png"",""images/Blue_Triangle.png""]","true","[[248,142],[231,58],[163,6],[78,9],[14,66],[2,150],[48,223],[129,249],[208,217]]","true",""
"visual-search-circle","152","2.2.0","421143","78958","visual_search_trial","804","","j","","","","","","","","","","null","red_circle","7","[""images/Red_Circle.png"",""images/Red_Circle.png"",""images/Red_Circle.png"",""images/Red_Circle.png"",""images/Red_Circle.png"",""images/Red_Circle.png""]","true","[[249,131],[193,20],[68,13],[0,118],[56,229],[181,236]]","false",""
"visual-search-circle","153","2.2.0","423447","78958","visual_search_trial","791","","j","","","","","","","","","","null","blue_triangle","7","[""images/Blue_Triangle.png"",""images/Blue_Triangle.png"",""images/Blue_Triangle.png"",""images/Blue_Triangle.png"",""images/Blue_Triangle.png"",""images/Blue_Triangle.png"",""images/Blue_Triangle.png"",""images/Blue_Triangle.png"",""images/Blue_Triangle.png""]","true","[[25,49],[0,131],[33,210],[109,249],[193,229],[244,161],[240,76],[181,13],[96,3]]","false",""
"visual-search-circle","154","2.2.0","425663","78958","visual_search_trial","699","","j","","","","","","","","","","null","red_circle","7","[""images/Red_Circle.png"",""images/Red_Circle.png"",""images/Red_Circle.png"",""images/Red_Circle.png"",""images/Red_Circle.png"",""images/Red_Circle.png"",""images/Red_Circle.png"",""images/Red_Circle.png"",""images/Red_Circle.png""]","true","[[0,131],[33,210],[109,249],[193,229],[244,161],[240,76],[181,13],[96,3],[25,49]]","false",""
"visual-search-circle","155","2.2.0","427850","78958","visual_search_trial","678","","f","","","","","","","","","","null","red_blue_mix","7","[""images/Red_Triangle.png"",""images/Blue_Triangle.png"",""images/Blue_Triangle.png"",""images/Blue_Triangle.png"",""images/Red_Circle.png"",""images/Blue_Triangle.png"",""images/Blue_Triangle.png"",""images/Red_Circle.png"",""images/Blue_Triangle.png""]","true","[[39,33],[0,109],[20,193],[88,244],[173,240],[236,181],[246,96],[200,25],[118,0]]","true",""
"visual-search-circle","156","2.2.0","430144","78958","visual_search_trial","779","","j","","","","","","","","","","null","blue_triangle","7","[""images/Blue_Triangle.png"",""images/Blue_Triangle.png"",""images/Blue_Triangle.png"",""images/Blue_Triangle.png"",""images/Blue_Triangle.png"",""images/Blue_Triangle.png""]","true","[[175,239],[249,138],[198,23],[74,10],[0,111],[51,226]]","false",""
"visual-search-circle","157","2.2.0","432697","78958","visual_search_trial","1045","","j","","","","","","","","","","null","red_blue_mix","7","[""images/Blue_Triangle.png"",""images/Blue_Circle.png"",""images/Red_Circle.png"",""images/Blue_Circle.png"",""images/Blue_Triangle.png"",""images/Red_Circle.png""]","true","[[140,249],[240,173],[224,49],[109,0],[9,76],[25,200]]","false",""
"visual-search-circle","158","2.2.0","434785","78958","visual_search_trial","576","","f","","","","","","","","","","null","red_circle","7","[""images/Red_Triangle.png"",""images/Red_Circle.png"",""images/Red_Circle.png"",""images/Red_Circle.png"",""images/Red_Circle.png"",""images/Red_Circle.png"",""images/Red_Circle.png"",""images/Red_Circle.png"",""images/Red_Circle.png""]","true","[[248,144],[232,60],[165,6],[80,8],[15,64],[2,148],[46,222],[127,249],[207,219]]","true",""
"visual-search-circle","159","2.2.0","437336","78958","visual_search_trial","1044","","j","","","","","","","","","","null","red_blue_mix","7","[""images/Blue_Circle.png"",""images/Blue_Triangle.png"",""images/Blue_Triangle.png"",""images/Red_Circle.png"",""images/Blue_Triangle.png"",""images/Red_Circle.png"",""images/Red_Circle.png"",""images/Blue_Circle.png"",""images/Blue_Circle.png""]","true","[[131,0],[49,25],[3,96],[13,181],[76,240],[161,244],[229,193],[249,109],[210,33]]","false",""
"visual-search-circle","160","2.2.0","439517","78958","visual_search_trial","670","","f","","","","","","","","","","null","blue_triangle","7","[""images/Red_Triangle.png"",""images/Blue_Triangle.png"",""images/Blue_Triangle.png""]","true","[[244,161],[96,3],[33,210]]","true",""
"visual-search-circle","161","2.2.0","441492","78958","visual_search_trial","459","","f","","","","","","","","","","null","red_blue_mix","7","[""images/Red_Triangle.png"",""images/Blue_Triangle.png"",""images/Blue_Triangle.png""]","true","[[167,7],[1,146],[205,220]]","true",""
"html-keyboard-response","162","2.1.0","444650","78958","break","3157","<p>Great job so far! Please rest for a few seconds before continuing.</p>
                 <p>Press the <strong>B</strong> key on your keyboard to continue.</p>","b","","","","","","","","","","","","","","","","","B"
"visual-search-circle","163","2.2.0","449446","78958","visual_search_trial","3286","","j","","","","","","","","","","null","red_blue_mix","8","[""images/Red_Circle.png"",""images/Red_Circle.png"",""images/Blue_Circle.png"",""images/Blue_Circle.png"",""images/Blue_Triangle.png"",""images/Blue_Circle.png"",""images/Red_Circle.png"",""images/Blue_Circle.png"",""images/Blue_Circle.png""]","true","[[36,213],[114,249],[196,227],[245,157],[238,72],[177,11],[92,4],[22,53],[0,135]]","false",""
"visual-search-circle","164","2.2.0","452153","78958","visual_search_trial","1195","","f","","","","","","","","","","null","blue_triangle","8","[""images/Red_Triangle.png"",""images/Blue_Triangle.png"",""images/Blue_Triangle.png"",""images/Blue_Triangle.png"",""images/Blue_Triangle.png"",""images/Blue_Triangle.png""]","true","[[23,198],[138,249],[239,175],[226,51],[111,0],[10,74]]","true",""
"visual-search-circle","165","2.2.0","454936","78958","visual_search_trial","1277","","j","","","","","","","","","","null","red_blue_mix","8","[""images/Red_Circle.png"",""images/Red_Circle.png"",""images/Red_Circle.png"",""images/Blue_Circle.png"",""images/Blue_Circle.png"",""images/Blue_Circle.png""]","true","[[2,101],[42,219],[165,243],[247,148],[207,30],[84,6]]","false",""
"visual-search-circle","166","2.2.0","457080","78958","visual_search_trial","635","","f","","","","","","","","","","null","red_circle","8","[""images/Red_Triangle.png"",""images/Red_Circle.png"",""images/Red_Circle.png"",""images/Red_Circle.png"",""images/Red_Circle.png"",""images/Red_Circle.png"",""images/Red_Circle.png"",""images/Red_Circle.png"",""images/Red_Circle.png""]","true","[[207,219],[248,144],[232,60],[165,6],[80,8],[15,64],[2,148],[46,222],[127,249]]","true",""
"visual-search-circle","167","2.2.0","459556","78958","visual_search_trial","961","","j","","","","","","","","","","null","red_blue_mix","8","[""images/Blue_Circle.png"",""images/Blue_Circle.png"",""images/Blue_Triangle.png""]","true","[[210,33],[3,96],[161,244]]","false",""
"visual-search-circle","168","2.2.0","461602","78958","visual_search_trial","543","","j","","","","","","","","","","null","blue_triangle","8","[""images/Blue_Triangle.png"",""images/Blue_Triangle.png"",""images/Blue_Triangle.png""]","true","[[76,9],[49,224],[249,140]]","false",""
"visual-search-circle","169","2.2.0","463631","78958","visual_search_trial","522","","j","","","","","","","","","","null","red_circle","8","[""images/Red_Circle.png"",""images/Red_Circle.png"",""images/Red_Circle.png"",""images/Red_Circle.png"",""images/Red_Circle.png"",""images/Red_Circle.png""]","true","[[4,157],[92,245],[213,213],[245,92],[157,4],[36,36]]","false",""
"visual-search-circle","170","2.2.0","465710","78958","visual_search_trial","572","","f","","","","","","","","","","null","red_blue_mix","8","[""images/Red_Triangle.png"",""images/Blue_Triangle.png"",""images/Blue_Triangle.png""]","true","[[248,103],[44,29],[82,242]]","true",""
"visual-search-circle","171","2.2.0","468253","78958","visual_search_trial","1034","","j","","","","","","","","","","null","red_circle","8","[""images/Red_Circle.png"",""images/Red_Circle.png"",""images/Red_Circle.png""]","true","[[103,1],[29,205],[242,167]]","false",""
"visual-search-circle","172","2.2.0","470461","78958","visual_search_trial","699","","f","","","","","","","","","","null","red_blue_mix","8","[""images/Red_Triangle.png"",""images/Blue_Triangle.png"",""images/Red_Circle.png"",""images/Blue_Circle.png"",""images/Blue_Triangle.png"",""images/Red_Circle.png"",""images/Blue_Triangle.png"",""images/Red_Circle.png"",""images/Blue_Circle.png""]","true","[[6,84],[8,169],[64,234],[148,247],[222,203],[249,122],[219,42],[144,1],[60,17]]","true",""
"visual-search-circle","173","2.2.0","472596","78958","visual_search_trial","624","","f","","","","","","","","","","null","red_circle","8","[""images/Red_Triangle.png"",""images/Red_Circle.png"",""images/Red_Circle.png"",""images/Red_Circle.png"",""images/Red_Circle.png"",""images/Red_Circle.png""]","true","[[153,246],[244,161],[216,39],[96,3],[5,88],[33,210]]","true",""
"visual-search-circle","174","2.2.0","474721","78958","visual_search_trial","617","","j","","","","","","","","","","null","blue_triangle","8","[""images/Blue_Triangle.png"",""images/Blue_Triangle.png"",""images/Blue_Triangle.png"",""images/Blue_Triangle.png"",""images/Blue_Triangle.png"",""images/Blue_Triangle.png""]","true","[[240,173],[224,49],[109,0],[9,76],[25,200],[140,249]]","false",""
"visual-search-circle","175","2.2.0","477156","78958","visual_search_trial","928","","f","","","","","","","","","","null","red_blue_mix","8","[""images/Red_Triangle.png"",""images/Red_Circle.png"",""images/Blue_Circle.png"",""images/Blue_Circle.png"",""images/Blue_Triangle.png"",""images/Red_Circle.png""]","true","[[246,96],[161,5],[39,33],[3,153],[88,244],[210,216]]","true",""
"visual-search-circle","176","2.2.0","479368","78958","visual_search_trial","703","","j","","","","","","","","","","null","blue_triangle","8","[""images/Blue_Triangle.png"",""images/Blue_Triangle.png"",""images/Blue_Triangle.png"",""images/Blue_Triangle.png"",""images/Blue_Triangle.png"",""images/Blue_Triangle.png"",""images/Blue_Triangle.png"",""images/Blue_Triangle.png"",""images/Blue_Triangle.png""]","true","[[36,36],[0,114],[22,196],[92,245],[177,238],[238,177],[245,92],[196,22],[114,0]]","false",""
"visual-search-circle","177","2.2.0","481739","78958","visual_search_trial","866","","f","","","","","","","","","","null","red_circle","8","[""images/Red_Triangle.png"",""images/Red_Circle.png"",""images/Red_Circle.png""]","true","[[244,88],[33,39],[96,246]]","true",""
"visual-search-circle","178","2.2.0","483880","78958","visual_search_trial","630","","f","","","","","","","","","","null","blue_triangle","8","[""images/Red_Triangle.png"",""images/Blue_Triangle.png"",""images/Blue_Triangle.png"",""images/Blue_Triangle.png"",""images/Blue_Triangle.png"",""images/Blue_Triangle.png"",""images/Blue_Triangle.png"",""images/Blue_Triangle.png"",""images/Blue_Triangle.png""]","true","[[114,249],[196,227],[245,157],[238,72],[177,11],[92,4],[22,53],[0,135],[36,213]]","true",""
"visual-search-circle","179","2.2.0","486338","78958","visual_search_trial","949","","j","","","","","","","","","","null","red_circle","8","[""images/Red_Circle.png"",""images/Red_Circle.png"",""images/Red_Circle.png"",""images/Red_Circle.png"",""images/Red_Circle.png"",""images/Red_Circle.png"",""images/Red_Circle.png"",""images/Red_Circle.png"",""images/Red_Circle.png""]","true","[[60,232],[144,248],[219,207],[249,127],[222,46],[148,2],[64,15],[8,80],[6,165]]","false",""
"visual-search-circle","180","2.2.0","488310","78958","visual_search_trial","457","","f","","","","","","","","","","null","blue_triangle","8","[""images/Red_Triangle.png"",""images/Blue_Triangle.png"",""images/Blue_Triangle.png""]","true","[[14,66],[129,249],[231,58]]","true",""
"visual-search-circle","181","2.2.0","490568","78958","visual_search_trial","744","","j","","","","","","","","","","null","red_blue_mix","9","[""images/Red_Circle.png"",""images/Red_Circle.png"",""images/Red_Circle.png"",""images/Red_Circle.png"",""images/Red_Circle.png"",""images/Blue_Circle.png"",""images/Blue_Triangle.png"",""images/Red_Circle.png"",""images/Blue_Triangle.png""]","true","[[6,163],[58,231],[142,248],[217,208],[249,129],[223,48],[150,2],[66,14],[9,78]]","false",""
"visual-search-circle","182","2.2.0","492594","78958","visual_search_trial","519","","f","","","","","","","","","","null","blue_triangle","9","[""images/Red_Triangle.png"",""images/Blue_Triangle.png"",""images/Blue_Triangle.png"",""images/Blue_Triangle.png"",""images/Blue_Triangle.png"",""images/Blue_Triangle.png""]","true","[[232,189],[234,64],[127,0],[17,60],[15,185],[122,249]]","true",""
"visual-search-circle","183","2.2.0","495691","78958","visual_search_trial","1589","","j","","","","","","","","","","null","red_circle","9","[""images/Red_Circle.png"",""images/Red_Circle.png"",""images/Red_Circle.png"",""images/Red_Circle.png"",""images/Red_Circle.png"",""images/Red_Circle.png"",""images/Red_Circle.png"",""images/Red_Circle.png"",""images/Red_Circle.png""]","true","[[217,41],[142,1],[58,18],[6,86],[9,171],[66,235],[150,247],[223,201],[249,120]]","false",""
"visual-search-circle","184","2.2.0","497823","78958","visual_search_trial","618","","j","","","","","","","","","","null","red_blue_mix","9","[""images/Blue_Circle.png"",""images/Red_Circle.png"",""images/Blue_Circle.png"",""images/Red_Circle.png"",""images/Blue_Circle.png"",""images/Red_Circle.png""]","true","[[9,78],[26,201],[142,248],[240,171],[223,48],[107,1]]","false",""
"visual-search-circle","185","2.2.0","499897","78958","visual_search_trial","568","","f","","","","","","","","","","null","blue_triangle","9","[""images/Red_Triangle.png"",""images/Blue_Triangle.png"",""images/Blue_Triangle.png""]","true","[[4,92],[157,245],[213,36]]","true",""
"visual-search-circle","186","2.2.0","502024","78958","visual_search_trial","609","","f","","","","","","","","","","null","red_circle","9","[""images/Red_Triangle.png"",""images/Red_Circle.png"",""images/Red_Circle.png"",""images/Red_Circle.png"",""images/Red_Circle.png"",""images/Red_Circle.png""]","true","[[66,14],[0,120],[58,231],[183,235],[249,129],[191,18]]","true",""
"visual-search-circle","187","2.2.0","504032","78958","visual_search_trial","491","","j","","","","","","","","","","null","blue_triangle","9","[""images/Blue_Triangle.png"",""images/Blue_Triangle.png"",""images/Blue_Triangle.png"",""images/Blue_Triangle.png"",""images/Blue_Triangle.png"",""images/Blue_Triangle.png""]","true","[[36,213],[157,245],[245,157],[213,36],[92,4],[4,92]]","false",""
"visual-search-circle","188","2.2.0","506078","78958","visual_search_trial","542","","j","","","","","","","","","","null","red_circle","9","[""images/Red_Circle.png"",""images/Red_Circle.png"",""images/Red_Circle.png""]","true","[[173,9],[0,140],[200,224]]","false",""
"visual-search-circle","189","2.2.0","508411","78958","visual_search_trial","819","","f","","","","","","","","","","null","red_blue_mix","9","[""images/Red_Triangle.png"",""images/Blue_Circle.png"",""images/Red_Circle.png"",""images/Blue_Triangle.png"",""images/Blue_Circle.png"",""images/Blue_Triangle.png""]","true","[[14,66],[18,191],[129,249],[235,183],[231,58],[120,0]]","true",""
"visual-search-circle","190","2.2.0","510454","78958","visual_search_trial","530","","j","","","","","","","","","","null","red_circle","9","[""images/Red_Circle.png"",""images/Red_Circle.png"",""images/Red_Circle.png"",""images/Red_Circle.png"",""images/Red_Circle.png"",""images/Red_Circle.png""]","true","[[109,249],[224,200],[240,76],[140,0],[25,49],[9,173]]","false",""
"visual-search-circle","191","2.2.0","512405","78958","visual_search_trial","442","","f","","","","","","","","","","null","blue_triangle","9","[""images/Red_Triangle.png"",""images/Blue_Triangle.png"",""images/Blue_Triangle.png"",""images/Blue_Triangle.png"",""images/Blue_Triangle.png"",""images/Blue_Triangle.png"",""images/Blue_Triangle.png"",""images/Blue_Triangle.png"",""images/Blue_Triangle.png""]","true","[[25,49],[0,131],[33,210],[109,249],[193,229],[244,161],[240,76],[181,13],[96,3]]","true",""
"visual-search-circle","192","2.2.0","514779","78958","visual_search_trial","859","","j","","","","","","","","","","null","red_blue_mix","9","[""images/Blue_Circle.png"",""images/Blue_Circle.png"",""images/Blue_Circle.png""]","true","[[246,153],[88,5],[39,216]]","false",""
"visual-search-circle","193","2.2.0","516875","78958","visual_search_trial","593","","f","","","","","","","","","","null","red_circle","9","[""images/Red_Triangle.png"",""images/Red_Circle.png"",""images/Red_Circle.png""]","true","[[120,0],[18,191],[235,183]]","true",""
"visual-search-circle","194","2.2.0","518873","78958","visual_search_trial","493","","j","","","","","","","","","","null","blue_triangle","9","[""images/Blue_Triangle.png"",""images/Blue_Triangle.png"",""images/Blue_Triangle.png""]","true","[[129,0],[14,183],[231,191]]","false",""
"visual-search-circle","195","2.2.0","521799","78958","visual_search_trial","1410","","f","","","","","","","","","","null","red_blue_mix","9","[""images/Red_Triangle.png"",""images/Blue_Triangle.png"",""images/Blue_Circle.png""]","true","[[233,62],[16,62],[125,250]]","true",""
"visual-search-circle","196","2.2.0","523865","78958","visual_search_trial","561","","j","","","","","","","","","","null","blue_triangle","9","[""images/Blue_Triangle.png"",""images/Blue_Triangle.png"",""images/Blue_Triangle.png"",""images/Blue_Triangle.png"",""images/Blue_Triangle.png"",""images/Blue_Triangle.png"",""images/Blue_Triangle.png"",""images/Blue_Triangle.png"",""images/Blue_Triangle.png""]","true","[[2,148],[46,222],[127,249],[207,219],[248,144],[232,60],[165,6],[80,8],[15,64]]","false",""
"visual-search-circle","197","2.2.0","525830","78958","visual_search_trial","453","","f","","","","","","","","","","null","red_circle","9","[""images/Red_Triangle.png"",""images/Red_Circle.png"",""images/Red_Circle.png"",""images/Red_Circle.png"",""images/Red_Circle.png"",""images/Red_Circle.png"",""images/Red_Circle.png"",""images/Red_Circle.png"",""images/Red_Circle.png""]","true","[[39,33],[0,109],[20,193],[88,244],[173,240],[236,181],[246,96],[200,25],[118,0]]","true",""
"visual-search-circle","198","2.2.0","528171","78958","visual_search_trial","826","","f","","","","","","","","","","null","red_blue_mix","9","[""images/Red_Triangle.png"",""images/Blue_Triangle.png"",""images/Red_Circle.png"",""images/Blue_Triangle.png"",""images/Red_Circle.png"",""images/Red_Circle.png"",""images/Red_Circle.png"",""images/Blue_Circle.png"",""images/Blue_Circle.png""]","true","[[228,194],[249,111],[211,35],[133,0],[51,23],[3,94],[12,179],[74,239],[159,245]]","true",""
"html-keyboard-response","199","2.1.0","531002","78958","break","2830","<p>Great job so far! Please rest for a few seconds before continuing.</p>
                 <p>Press the <strong>O</strong> key on your keyboard to continue.</p>","o","","","","","","","","","","","","","","","","","O"
"visual-search-circle","200","2.2.0","534073","78958","visual_search_trial","1553","","f","","","","","","","","","","null","blue_triangle","10","[""images/Red_Triangle.png"",""images/Blue_Triangle.png"",""images/Blue_Triangle.png"",""images/Blue_Triangle.png"",""images/Blue_Triangle.png"",""images/Blue_Triangle.png""]","true","[[243,163],[217,41],[99,2],[6,86],[32,208],[150,247]]","true",""
"visual-search-circle","201","2.2.0","537638","78958","visual_search_trial","2054","","f","","","","","","","","","","null","red_blue_mix","10","[""images/Red_Triangle.png"",""images/Blue_Triangle.png"",""images/Blue_Triangle.png"",""images/Red_Circle.png"",""images/Red_Circle.png"",""images/Red_Circle.png""]","true","[[70,12],[0,116],[55,228],[179,237],[249,133],[194,21]]","true",""
"visual-search-circle","202","2.2.0","539774","78958","visual_search_trial","621","","f","","","","","","","","","","null","blue_triangle","10","[""images/Red_Triangle.png"",""images/Blue_Triangle.png"",""images/Blue_Triangle.png"",""images/Blue_Triangle.png"",""images/Blue_Triangle.png"",""images/Blue_Triangle.png"",""images/Blue_Triangle.png"",""images/Blue_Triangle.png"",""images/Blue_Triangle.png""]","true","[[6,165],[60,232],[144,248],[219,207],[249,127],[222,46],[148,2],[64,15],[8,80]]","true",""
"visual-search-circle","203","2.2.0","541907","78958","visual_search_trial","630","","f","","","","","","","","","","null","red_circle","10","[""images/Red_Triangle.png"",""images/Red_Circle.png"",""images/Red_Circle.png""]","true","[[135,249],[227,53],[11,72]]","true",""
"visual-search-circle","204","2.2.0","543920","78958","visual_search_trial","504","","j","","","","","","","","","","null","blue_triangle","10","[""images/Blue_Triangle.png"",""images/Blue_Triangle.png"",""images/Blue_Triangle.png""]","true","[[205,220],[167,7],[1,146]]","false",""
"visual-search-circle","205","2.2.0","546073","78958","visual_search_trial","634","","f","","","","","","","","","","null","red_circle","10","[""images/Red_Triangle.png"",""images/Red_Circle.png"",""images/Red_Circle.png"",""images/Red_Circle.png"",""images/Red_Circle.png"",""images/Red_Circle.png"",""images/Red_Circle.png"",""images/Red_Circle.png"",""images/Red_Circle.png""]","true","[[157,245],[227,196],[249,114],[213,36],[135,0],[53,22],[4,92],[11,177],[72,238]]","true",""
"visual-search-circle","206","2.2.0","548074","78958","visual_search_trial","491","","f","","","","","","","","","","null","red_blue_mix","10","[""images/Red_Triangle.png"",""images/Red_Circle.png"",""images/Red_Circle.png""]","true","[[189,17],[0,122],[185,234]]","true",""
"visual-search-circle","207","2.2.0","550219","78958","visual_search_trial","635","","j","","","","","","","","","","null","red_circle","10","[""images/Red_Circle.png"",""images/Red_Circle.png"",""images/Red_Circle.png"",""images/Red_Circle.png"",""images/Red_Circle.png"",""images/Red_Circle.png""]","true","[[140,0],[25,49],[9,173],[109,249],[224,200],[240,76]]","false",""
"visual-search-circle","208","2.2.0","552866","78958","visual_search_trial","1140","","j","","","","","","","","","","null","red_blue_mix","10","[""images/Blue_Circle.png"",""images/Blue_Triangle.png"",""images/Red_Circle.png"",""images/Red_Circle.png"",""images/Blue_Triangle.png"",""images/Red_Circle.png""]","true","[[22,53],[11,177],[114,249],[227,196],[238,72],[135,0]]","false",""
"visual-search-circle","209","2.2.0","554841","78958","visual_search_trial","472","","f","","","","","","","","","","null","red_circle","10","[""images/Red_Triangle.png"",""images/Red_Circle.png"",""images/Red_Circle.png"",""images/Red_Circle.png"",""images/Red_Circle.png"",""images/Red_Circle.png""]","true","[[20,193],[131,249],[236,181],[229,56],[118,0],[13,68]]","true",""
"visual-search-circle","210","2.2.0","557003","78958","visual_search_trial","651","","j","","","","","","","","","","null","red_blue_mix","10","[""images/Blue_Circle.png"",""images/Blue_Triangle.png"",""images/Red_Circle.png""]","true","[[183,14],[0,129],[191,231]]","false",""
"visual-search-circle","211","2.2.0","559147","78958","visual_search_trial","633","","j","","","","","","","","","","null","blue_triangle","10","[""images/Blue_Triangle.png"",""images/Blue_Triangle.png"",""images/Blue_Triangle.png"",""images/Blue_Triangle.png"",""images/Blue_Triangle.png"",""images/Blue_Triangle.png"",""images/Blue_Triangle.png"",""images/Blue_Triangle.png"",""images/Blue_Triangle.png""]","true","[[146,248],[220,205],[250,125],[220,44],[146,1],[62,16],[7,82],[7,167],[62,233]]","false",""
"visual-search-circle","212","2.2.0","561190","78958","visual_search_trial","525","","j","","","","","","","","","","null","red_circle","10","[""images/Red_Circle.png"",""images/Red_Circle.png"",""images/Red_Circle.png""]","true","[[224,200],[140,0],[9,173]]","false",""
"visual-search-circle","213","2.2.0","563388","78958","visual_search_trial","692","","f","","","","","","","","","","null","red_blue_mix","10","[""images/Red_Triangle.png"",""images/Red_Circle.png"",""images/Red_Circle.png"",""images/Red_Circle.png"",""images/Blue_Circle.png"",""images/Red_Circle.png"",""images/Blue_Triangle.png"",""images/Blue_Circle.png"",""images/Red_Circle.png""]","true","[[20,56],[0,140],[39,216],[118,249],[200,224],[246,153],[236,68],[173,9],[88,5]]","true",""
"visual-search-circle","214","2.2.0","565359","78958","visual_search_trial","455","","j","","","","","","","","","","null","blue_triangle","10","[""images/Blue_Triangle.png"",""images/Blue_Triangle.png"",""images/Blue_Triangle.png"",""images/Blue_Triangle.png"",""images/Blue_Triangle.png"",""images/Blue_Triangle.png""]","true","[[0,109],[49,224],[173,240],[249,140],[200,25],[76,9]]","false",""
"visual-search-circle","215","2.2.0","567425","78958","visual_search_trial","554","","j","","","","","","","","","","null","red_circle","10","[""images/Red_Circle.png"",""images/Red_Circle.png"",""images/Red_Circle.png"",""images/Red_Circle.png"",""images/Red_Circle.png"",""images/Red_Circle.png"",""images/Red_Circle.png"",""images/Red_Circle.png"",""images/Red_Circle.png""]","true","[[72,11],[11,72],[4,157],[53,227],[135,249],[213,213],[249,135],[227,53],[157,4]]","false",""
"visual-search-circle","216","2.2.0","569737","78958","visual_search_trial","806","","f","","","","","","","","","","null","blue_triangle","10","[""images/Red_Triangle.png"",""images/Blue_Triangle.png"",""images/Blue_Triangle.png""]","true","[[249,127],[64,15],[60,232]]","true",""
"visual-search-circle","217","2.2.0","571915","78958","visual_search_trial","667","","j","","","","","","","","","","null","red_blue_mix","10","[""images/Blue_Circle.png"",""images/Blue_Triangle.png"",""images/Blue_Triangle.png"",""images/Red_Circle.png"",""images/Blue_Circle.png"",""images/Red_Circle.png"",""images/Red_Circle.png"",""images/Red_Circle.png"",""images/Blue_Circle.png""]","true","[[243,84],[189,17],[105,1],[30,42],[0,122],[27,203],[101,247],[185,234],[241,169]]","false",""
"visual-search-circle","218","2.2.0","574086","78958","visual_search_trial","663","","f","","","","","","","","","","null","blue_triangle","11","[""images/Red_Triangle.png"",""images/Blue_Triangle.png"",""images/Blue_Triangle.png"",""images/Blue_Triangle.png"",""images/Blue_Triangle.png"",""images/Blue_Triangle.png""]","true","[[26,201],[142,248],[240,171],[223,48],[107,1],[9,78]]","true",""
"visual-search-circle","219","2.2.0","576329","78958","visual_search_trial","737","","f","","","","","","","","","","null","red_blue_mix","11","[""images/Red_Triangle.png"",""images/Blue_Triangle.png"",""images/Blue_Triangle.png"",""images/Blue_Circle.png"",""images/Blue_Triangle.png"",""images/Blue_Triangle.png"",""images/Red_Circle.png"",""images/Red_Circle.png"",""images/Blue_Circle.png""]","true","[[189,232],[243,165],[241,80],[185,15],[101,2],[27,46],[0,127],[30,207],[105,248]]","true",""
"visual-search-circle","220","2.2.0","578548","78958","visual_search_trial","714","","j","","","","","","","","","","null","blue_triangle","11","[""images/Blue_Triangle.png"",""images/Blue_Triangle.png"",""images/Blue_Triangle.png""]","true","[[72,238],[249,114],[53,22]]","false",""
"visual-search-circle","221","2.2.0","581192","78958","visual_search_trial","1129","","j","","","","","","","","","","null","red_blue_mix","11","[""images/Red_Circle.png"",""images/Red_Circle.png"",""images/Blue_Triangle.png""]","true","[[175,239],[198,23],[0,111]]","false",""
"visual-search-circle","222","2.2.0","583236","78958","visual_search_trial","533","","j","","","","","","","","","","null","red_circle","11","[""images/Red_Circle.png"",""images/Red_Circle.png"",""images/Red_Circle.png"",""images/Red_Circle.png"",""images/Red_Circle.png"",""images/Red_Circle.png""]","true","[[232,60],[122,0],[15,64],[17,189],[127,249],[234,185]]","false",""
"visual-search-circle","223","2.2.0","585408","78958","visual_search_trial","655","","f","","","","","","","","","","null","red_blue_mix","11","[""images/Red_Triangle.png"",""images/Blue_Triangle.png"",""images/Blue_Triangle.png"",""images/Blue_Triangle.png"",""images/Blue_Triangle.png"",""images/Red_Circle.png""]","true","[[244,161],[216,39],[96,3],[5,88],[33,210],[153,246]]","true",""
"visual-search-circle","224","2.2.0","587419","78958","visual_search_trial","506","","f","","","","","","","","","","null","red_circle","11","[""images/Red_Triangle.png"",""images/Red_Circle.png"",""images/Red_Circle.png"",""images/Red_Circle.png"",""images/Red_Circle.png"",""images/Red_Circle.png"",""images/Red_Circle.png"",""images/Red_Circle.png"",""images/Red_Circle.png""]","true","[[249,140],[229,56],[161,5],[76,9],[13,68],[3,153],[49,224],[131,249],[210,216]]","true",""
"visual-search-circle","225","2.2.0","589545","78958","visual_search_trial","620","","f","","","","","","","","","","null","blue_triangle","11","[""images/Red_Triangle.png"",""images/Blue_Triangle.png"",""images/Blue_Triangle.png""]","true","[[216,210],[153,3],[5,161]]","true",""
"visual-search-circle","226","2.2.0","591641","78958","visual_search_trial","591","","f","","","","","","","","","","null","red_circle","11","[""images/Red_Triangle.png"",""images/Red_Circle.png"",""images/Red_Circle.png""]","true","[[20,193],[236,181],[118,0]]","true",""
"visual-search-circle","227","2.2.0","594122","78958","visual_search_trial","973","","j","","","","","","","","","","null","red_blue_mix","11","[""images/Blue_Triangle.png"",""images/Blue_Triangle.png"",""images/Red_Circle.png"",""images/Blue_Circle.png"",""images/Blue_Circle.png"",""images/Red_Circle.png""]","true","[[58,231],[183,235],[249,129],[191,18],[66,14],[0,120]]","false",""
"visual-search-circle","228","2.2.0","596117","78958","visual_search_trial","491","","f","","","","","","","","","","null","red_circle","11","[""images/Red_Triangle.png"",""images/Red_Circle.png"",""images/Red_Circle.png"",""images/Red_Circle.png"",""images/Red_Circle.png"",""images/Red_Circle.png""]","true","[[246,94],[159,4],[38,35],[3,155],[90,245],[211,214]]","true",""
"visual-search-circle","229","2.2.0","598412","78958","visual_search_trial","789","","f","","","","","","","","","","null","red_blue_mix","11","[""images/Red_Triangle.png"",""images/Blue_Circle.png"",""images/Blue_Triangle.png""]","true","[[217,208],[150,2],[6,163]]","true",""
"visual-search-circle","230","2.2.0","600423","78958","visual_search_trial","503","","j","","","","","","","","","","null","blue_triangle","11","[""images/Blue_Triangle.png"",""images/Blue_Triangle.png"",""images/Blue_Triangle.png"",""images/Blue_Triangle.png"",""images/Blue_Triangle.png"",""images/Blue_Triangle.png""]","true","[[214,38],[94,3],[4,90],[35,211],[155,246],[245,159]]","false",""
"visual-search-circle","231","2.2.0","602431","78958","visual_search_trial","496","","j","","","","","","","","","","null","red_circle","11","[""images/Red_Circle.png"",""images/Red_Circle.png"",""images/Red_Circle.png"",""images/Red_Circle.png"",""images/Red_Circle.png"",""images/Red_Circle.png"",""images/Red_Circle.png"",""images/Red_Circle.png"",""images/Red_Circle.png""]","true","[[3,94],[12,179],[74,239],[159,245],[228,194],[249,111],[211,35],[133,0],[51,23]]","false",""
"visual-search-circle","232","2.2.0","604466","78958","visual_search_trial","518","","f","","","","","","","","","","null","blue_triangle","11","[""images/Red_Triangle.png"",""images/Blue_Triangle.png"",""images/Blue_Triangle.png"",""images/Blue_Triangle.png"",""images/Blue_Triangle.png"",""images/Blue_Triangle.png"",""images/Blue_Triangle.png"",""images/Blue_Triangle.png"",""images/Blue_Triangle.png""]","true","[[0,118],[25,200],[96,246],[181,236],[240,173],[244,88],[193,20],[109,0],[33,39]]","true",""
"visual-search-circle","233","2.2.0","606544","78958","visual_search_trial","570","","j","","","","","","","","","","null","red_circle","11","[""images/Red_Circle.png"",""images/Red_Circle.png"",""images/Red_Circle.png""]","true","[[249,135],[72,11],[53,227]]","false",""
"visual-search-circle","234","2.2.0","608873","78958","visual_search_trial","821","","j","","","","","","","","","","null","red_blue_mix","11","[""images/Blue_Triangle.png"",""images/Red_Circle.png"",""images/Red_Circle.png"",""images/Blue_Triangle.png"",""images/Red_Circle.png"",""images/Blue_Circle.png"",""images/Blue_Triangle.png"",""images/Red_Circle.png"",""images/Blue_Triangle.png""]","true","[[42,219],[122,249],[203,222],[247,148],[234,64],[169,8],[84,6],[17,60],[1,144]]","false",""
