"trial_type","trial_index","plugin_version","time_elapsed","sona_id","phase","rt","stimulus","response","consented","required_key","view_history","question_order","success","timeout","failed_images","failed_audio","failed_video","set_size","distractor_type","block","stimuli_list","correct","locations","target_present","break_key"
"pavlovia","0","null","1162","78592","","","","","","","","","","","","","","","","","","","","",""
"html-button-response","1","2.1.0","6636","78592","informed_consent","5471","
    <div style=""max-width: 900px; margin: 0 auto; padding: 20px; text-align: left; line-height: 1.6;"">
      <h1 style=""text-align: center; color: #333; font-size: 24px; margin-bottom: 10px; font-weight: bold;"">
        INFORMED CONSENT INFORMATION
      </h1>
      <h2 style=""text-align: center; color: #333; font-size: 22px; margin-bottom: 20px; font-weight: bold;"">
        FOR RESEARCH PARTICIPATION
      </h2>
      
      <p style=""margin-bottom: 10px;""><strong>Study Title:</strong> The Effects of Mindfulness and Attention on Life Satisfaction and Memory</p>
      <p style=""margin-bottom: 10px;""><strong>Principal Investigator:</strong> Ella Bremmer</p>
      <p style=""margin-bottom: 10px;""><strong>Co-Principal Investigator:</strong> Dr. Gregory Cox</p>
      <p style=""margin-bottom: 20px;""><strong>IRB Study Number:</strong> STUDY00006288</p>

      <p style=""margin-bottom: 15px;"">I am a student at the University at Albany, in the Department of Psychology. I am planning to conduct a research study, which I invite you to take part in.</p>
      
      <p style=""margin-bottom: 25px;"">This form has important information about the reasons for doing this study, what we will ask you to do, and the way we would like to use the information we collect about you.</p>

      <h3 style=""color: #333; font-size: 18px; margin-top: 25px; margin-bottom: 10px; font-weight: bold;"">
        Why are you doing this study?
      </h3>
      <p style=""margin-bottom: 15px;"">You are being asked to participate in a research study that aims to understand if there is a relationship between mindfulness, the ability to pay attention, and life satisfaction.</p>
      
      <p style=""margin-bottom: 25px;"">The purpose of this study is to investigate if having better control over one's attention influences overall life satisfaction. Your participation will help us better understand if mindfulness and attention do have a significant effect on life satisfaction (i.e., how people feel about their lives overall). Then you will be asked to perform a conjunction visual search task to test your capacity to direct your attention over a sustained period.</p>

      <h3 style=""color: #333; font-size: 18px; margin-top: 25px; margin-bottom: 10px; font-weight: bold;"">
        Why am I eligible to participate in this study?
      </h3>
      <p style=""margin-bottom: 25px;"">You are eligible to participate because you are a student at UAlbany, are at least 18 years old, and are proficient in English.</p>

      <h3 style=""color: #333; font-size: 18px; margin-top: 25px; margin-bottom: 10px; font-weight: bold;"">
        What will I do if I choose to be in this study?
      </h3>
      <p style=""margin-bottom: 10px;"">If you choose to take part in our study, you will do the following:</p>
      <p style=""margin-bottom: 8px; margin-left: 20px;"">1. Read and agree to the informed consent.</p>
      <p style=""margin-bottom: 8px; margin-left: 40px;"">a. If you choose not to agree to the informed consent, you will be taken back to the SONA site.</p>
      <p style=""margin-bottom: 8px; margin-left: 20px;"">2. Complete a demographic questionnaire that asks about your age, English proficiency, gender, and race.</p>
      <p style=""margin-bottom: 8px; margin-left: 20px;"">3. Read instructions for the visual search task, which asks you to indicate if a target (a red triangle) is present among various other colored shapes. You should press the ""F"" key if a red triangle is present, or the ""J"" key if the target is absent.</p>
      <p style=""margin-bottom: 8px; margin-left: 20px;"">4. You will be asked to respond to 270 visual search trials, whith the opportunity to take short breaks as you go</p>
      <p style=""margin-bottom: 8px; margin-left: 20px;"">5. You will complete the Mindfulness Attention Awareness Scale (MAAS), the Satisfaction With Life Scale (SWLS), and the Big Five Inventory.</p>
      <p style=""margin-bottom: 25px; margin-left: 20px;"">6.	After all questionnaires are completed, participants will be thanked for their time and will be provided the study debriefing. Following the debriefing, you will be sent back to the SONA research site.</p>

      <h3 style=""color: #333; font-size: 18px; margin-top: 25px; margin-bottom: 10px; font-weight: bold;"">
        For how long will I participate?
      </h3>
      <p style=""margin-bottom: 25px;"">This study is a single online session that you can complete on a computer. The study can be completed in less than 30 minutes but could require as long as 45 minutes to complete.</p>

      <h3 style=""color: #333; font-size: 18px; margin-top: 25px; margin-bottom: 10px; font-weight: bold;"">
        Where will I need to go to participate?
      </h3>
      <p style=""margin-bottom: 25px;"">All study procedures will take place online and can be completed wherever you have internet connection.</p>

      <h3 style=""color: #333; font-size: 18px; margin-top: 25px; margin-bottom: 10px; font-weight: bold;"">
        Are there any costs I should be aware of?
      </h3>
      <p style=""margin-bottom: 25px;"">Participation is not expected to incur cost to participants. Free internet access is available anywhere on campus and in the university library.</p>

      <h3 style=""color: #333; font-size: 18px; margin-top: 25px; margin-bottom: 10px; font-weight: bold;"">
        What are the possible risks or discomforts?
      </h3>
      <p style=""margin-bottom: 15px;"">As with all research, there is a chance that confidentiality of the information we collect from you could be breached – we will take steps to minimize this risk, as discussed in more detail below.</p>
      
      <p style=""margin-bottom: 25px;"">The risks associated with participating in this study are minimal; however, you may experience mild discomfort when reflecting on your mindfulness or life satisfaction when answering questionnaires in the study. To help minimize this, you can withdraw from the study at any time without any consequences. The study will take place online, and you will have the opportunity to take breaks while completing the survey to reduce the risk of eye strain associated with the use of electronic devices.</p>

      <h3 style=""color: #333; font-size: 18px; margin-top: 25px; margin-bottom: 10px; font-weight: bold;"">
        What are the possible benefits for me or others?
      </h3>
      <p style=""margin-bottom: 25px;"">While there are no direct personal benefits to participants of this study, you may find value in reflecting on your mindfulness, attention, and its impact on life satisfaction by completing this survey. The data you contribute may help advance society's understanding of how mindfulness and attention relate to overall well-being, potentially informing future programs or interventions aimed at improving student mental health, attention, and life satisfaction.</p>

      <h3 style=""color: #333; font-size: 18px; margin-top: 25px; margin-bottom: 10px; font-weight: bold;"">
        Will I receive compensation for my participation?
      </h3>
      <p style=""margin-bottom: 25px;"">SONA partial class credit will be awarded via the Psychology Department SONA research pool after you complete the survey in its entirety. Participants who withdraw before completing the survey will not receive partial credit. You will not receive monetary compensation for your participation in this study.</p>

      <h3 style=""color: #333; font-size: 18px; margin-top: 25px; margin-bottom: 10px; font-weight: bold;"">
        How will you protect the information you collect about me, and how will that information be shared?
      </h3>
      <p style=""margin-bottom: 15px;"">Results of this study may be used in publications and presentations. Your data will be handled as confidentially as possible, and no identifiable information will be collected to link your data back to you. If results of this study are published or presented, only de-identified summaries of data will be used.</p>
      
      <p style=""margin-bottom: 25px;"">To minimize the risks to confidentiality, all data will be collected anonymously via Pavlovia.org which uses encryption to protect information (https://pavlovia.org/docs/home/ethics). Only the student researcher (Ella Bremmer), mentor (Pierce Johnson), and faculty advisor (Gregory Cox) will have password-protected access to the data. Data will be stored on secure, university approved computers.</p>

      <h3 style=""color: #333; font-size: 18px; margin-top: 25px; margin-bottom: 10px; font-weight: bold;"">
        Will my data be used in future research?
      </h3>
      <p style=""margin-bottom: 25px;"">No personal identifiers will be collected in the data you provide us. Data will not be used in future research, and will be deleted after the required retention period.</p>

      <h3 style=""color: #333; font-size: 18px; margin-top: 25px; margin-bottom: 10px; font-weight: bold;"">
        What are my rights as a research participant?
      </h3>
      <p style=""margin-bottom: 15px;"">Participation in this study is voluntary. You do not have to answer any question you do not want to answer. If at any time and for any reason, you would prefer not to participate in this study, please feel free not to. If at any time you would like to stop participating, you are welcome to stop. You can take a break or stop altogether. You may withdraw from this study at any time, and you will not be penalized in any way for deciding to stop participation.</p>
      
      <p style=""margin-bottom: 25px;"">If you decide to withdraw from this study, any information collected from you before withdrawing will not be used, and your data will be deleted.</p>

      <h3 style=""color: #333; font-size: 18px; margin-top: 25px; margin-bottom: 10px; font-weight: bold;"">
        What if I am a University at Albany student or employee?
      </h3>
      <p style=""margin-bottom: 25px;"">You may choose not to participate or to stop participating in this research at any time. This will not affect your class standing, grades, employment, or any other aspects of your relationship with the University at Albany.</p>

      <h3 style=""color: #333; font-size: 18px; margin-top: 25px; margin-bottom: 10px; font-weight: bold;"">
        Who can I contact if I have questions or concerns about this research study?
      </h3>
      <p style=""margin-bottom: 15px;"">If you have questions, please feel free to stop and email the investigator, Ella Bremmer (ebremmer@albany.edu) or advisors, Pierce Johnson (pjohnson4@albany.edu) and Dr. Greg Cox (gecox@albany.edu). If you have questions later, you may also contact the researchers.</p>
      
      <p style=""margin-bottom: 10px;"">If you have any questions about your rights as a participant in this research, you can contact the following office at the University at Albany:</p>
      
      <p style=""margin-bottom: 5px; margin-left: 20px;"">Institutional Review Board</p>
      <p style=""margin-bottom: 5px; margin-left: 20px;"">University at Albany</p>
      <p style=""margin-bottom: 5px; margin-left: 20px;"">Office of Regulatory and Research Compliance</p>
      <p style=""margin-bottom: 5px; margin-left: 20px;"">1400 Washington Ave, Biology 227</p>
      <p style=""margin-bottom: 5px; margin-left: 20px;"">Albany, NY 12222</p>
      <p style=""margin-bottom: 5px; margin-left: 20px;"">Phone: 1-866-857-5459</p>
      <p style=""margin-bottom: 25px; margin-left: 20px;"">Email: rco@albany.edu</p>

      <h3 style=""color: #333; font-size: 18px; margin-top: 30px; margin-bottom: 10px; font-weight: bold;"">
        Consent
      </h3>
      <p style=""margin-bottom: 20px;"">I have read this form and the research study has been explained to me. I have been given the opportunity to ask questions and my questions have been answered. If I have additional questions, I have been told whom to contact. I agree to participate in the research study described above. I understand that I have the opportunity to download and save a copy of this form for my records.</p>

      <div style=""background-color: #f9f9f9; border: 2px solid #4CAF50; border-radius: 5px; padding: 20px; margin-top: 20px; margin-bottom: 20px;"">
        <p style=""margin-bottom: 15px; font-weight: bold;"">To save a copy of this consent form for your records, press Ctrl+P (Windows/Linux) or Cmd+P (Mac) and select ""Save as PDF"".</p>
        <p style=""margin-bottom: 0; font-weight: bold;"">By clicking ""I Agree"" below, I confirm that I agree to participate in the research study described above, and that doing so serves as my written signature consenting to take part in the study.</p>
      </div>
    </div>
  ","0","true","","","","","","","","","","","","","","","",""
"instructions","3","2.1.0","8892","78592","intro_instructions","2255","","","","j","[{""page_index"":0,""viewing_time"":2255}]","","","","","","","","","","","","","",""
"html-keyboard-response","4","2.1.0","10898","78592","intermediate_slide_demo","null","<p style=""font-size:4vw"">Demographic Questionnaire</p>","null","","","","","","","","","","","","","","","","",""
"survey-multi-choice","5","2.1.0","16637","78592","demographics_english","5738","","{""english"":""Strongly agree""}","","","","[0]","","","","","","","","","","","","",""
"survey-text","7","2.1.0","18946","78592","demographics_age","2303","","{""age"":""19""}","","","","","","","","","","","","","","","","",""
"survey-multi-select","9","2.1.0","22557","78592","demographics_gender","3607","","{""gender"":[""Woman""]}","","","","[0]","","","","","","","","","","","","",""
"survey-multi-choice","11","2.1.0","27643","78592","demographics_race","5083","","{""race"":""Asian or Pacific Islander""}","","","","[0]","","","","","","","","","","","","",""
"html-keyboard-response","12","2.1.0","29651","78592","intermediate_slide_VS","null","<p style=""font-size:4vw"">Visual Search Task</p>","null","","","","","","","","","","","","","","","","",""
"preload","13","2.1.0","29903","78592","image_preload","","","","","","","","true","false","[]","[]","[]","","","","","","","",""
"html-button-response","14","2.1.0","46484","78592","vs_instructions","16578","<p>On the following screens, you will see a series of colored shapes (triangles, squares, and circles) appear.</p>
    <p>Please Press 'F' if there <strong>is</strong> a red triangle among the shapes you see.</p>
    <p>Press 'J' if there is <strong>not</strong> a red triangle among the shapes you see.</p>","0","","","","","","","","","","","","","","","","",""
"visual-search-circle","15","2.2.0","51767","78592","visual_search_trial","3774","","j","","","","","","","","","","null","red_circle","0","[""images/Red_Circle.png"",""images/Red_Circle.png"",""images/Red_Circle.png"",""images/Red_Circle.png"",""images/Red_Circle.png"",""images/Red_Circle.png""]","true","[[64,15],[0,122],[60,232],[185,234],[249,127],[189,17]]","false",""
"visual-search-circle","16","2.2.0","55942","78592","visual_search_trial","2667","","f","","","","","","","","","","null","red_blue_mix","0","[""images/Blue_Triangle.png"",""images/Blue_Circle.png"",""images/Red_Circle.png""]","false","[[21,55],[116,249],[237,70]]","false",""
"visual-search-circle","17","2.2.0","60703","78592","visual_search_trial","3253","","f","","","","","","","","","","null","red_circle","0","[""images/Red_Triangle.png"",""images/Red_Circle.png"",""images/Red_Circle.png"",""images/Red_Circle.png"",""images/Red_Circle.png"",""images/Red_Circle.png""]","true","[[114,249],[227,196],[238,72],[135,0],[22,53],[11,177]]","true",""
"visual-search-circle","18","2.2.0","63391","78592","visual_search_trial","1179","","j","","","","","","","","","","null","blue_triangle","0","[""images/Blue_Triangle.png"",""images/Blue_Triangle.png"",""images/Blue_Triangle.png""]","true","[[165,243],[207,30],[2,101]]","false",""
"visual-search-circle","19","2.2.0","65540","78592","visual_search_trial","642","","f","","","","","","","","","","null","red_blue_mix","0","[""images/Red_Triangle.png"",""images/Red_Circle.png"",""images/Red_Circle.png""]","true","[[135,0],[11,177],[227,196]]","true",""
"visual-search-circle","20","2.2.0","68192","78592","visual_search_trial","1136","","j","","","","","","","","","","null","red_circle","0","[""images/Red_Circle.png"",""images/Red_Circle.png"",""images/Red_Circle.png""]","true","[[203,222],[169,8],[1,144]]","false",""
"visual-search-circle","21","2.2.0","71925","78592","visual_search_trial","2223","","j","","","","","","","","","","null","red_blue_mix","0","[""images/Blue_Triangle.png"",""images/Red_Circle.png"",""images/Blue_Triangle.png"",""images/Red_Circle.png"",""images/Red_Circle.png"",""images/Blue_Circle.png"",""images/Blue_Circle.png"",""images/Red_Circle.png"",""images/Blue_Circle.png""]","true","[[248,105],[207,30],[127,0],[46,27],[2,101],[15,185],[80,241],[165,243],[232,189]]","false",""
"visual-search-circle","22","2.2.0","74705","78592","visual_search_trial","1273","","f","","","","","","","","","","null","blue_triangle","0","[""images/Red_Triangle.png"",""images/Blue_Triangle.png"",""images/Blue_Triangle.png"",""images/Blue_Triangle.png"",""images/Blue_Triangle.png"",""images/Blue_Triangle.png"",""images/Blue_Triangle.png"",""images/Blue_Triangle.png"",""images/Blue_Triangle.png""]","true","[[39,33],[0,109],[20,193],[88,244],[173,240],[236,181],[246,96],[200,25],[118,0]]","true",""
"visual-search-circle","23","2.2.0","77300","78592","visual_search_trial","1087","","j","","","","","","","","","","null","red_circle","0","[""images/Red_Circle.png"",""images/Red_Circle.png"",""images/Red_Circle.png"",""images/Red_Circle.png"",""images/Red_Circle.png"",""images/Red_Circle.png"",""images/Red_Circle.png"",""images/Red_Circle.png"",""images/Red_Circle.png""]","true","[[41,217],[120,249],[201,223],[247,150],[235,66],[171,9],[86,6],[18,58],[1,142]]","false",""
"visual-search-circle","24","2.2.0","79598","78592","visual_search_trial","792","","f","","","","","","","","","","null","blue_triangle","0","[""images/Red_Triangle.png"",""images/Blue_Triangle.png"",""images/Blue_Triangle.png"",""images/Blue_Triangle.png"",""images/Blue_Triangle.png"",""images/Blue_Triangle.png""]","true","[[105,1],[8,80],[27,203],[144,248],[241,169],[222,46]]","true",""
"visual-search-circle","25","2.2.0","81692","78592","visual_search_trial","589","","f","","","","","","","","","","null","red_blue_mix","0","[""images/Red_Triangle.png"",""images/Blue_Triangle.png"",""images/Blue_Circle.png"",""images/Blue_Circle.png"",""images/Blue_Circle.png"",""images/Blue_Triangle.png""]","true","[[191,18],[66,14],[0,120],[58,231],[183,235],[249,129]]","true",""
"visual-search-circle","26","2.2.0","84021","78592","visual_search_trial","824","","j","","","","","","","","","","null","blue_triangle","0","[""images/Blue_Triangle.png"",""images/Blue_Triangle.png"",""images/Blue_Triangle.png"",""images/Blue_Triangle.png"",""images/Blue_Triangle.png"",""images/Blue_Triangle.png""]","true","[[193,20],[68,13],[0,118],[56,229],[181,236],[249,131]]","false",""
"visual-search-circle","27","2.2.0","86407","78592","visual_search_trial","880","","f","","","","","","","","","","null","red_blue_mix","0","[""images/Red_Triangle.png"",""images/Red_Circle.png"",""images/Red_Circle.png"",""images/Blue_Circle.png"",""images/Blue_Triangle.png"",""images/Blue_Triangle.png"",""images/Blue_Triangle.png"",""images/Red_Circle.png"",""images/Blue_Circle.png""]","true","[[246,153],[236,68],[173,9],[88,5],[20,56],[0,140],[39,216],[118,249],[200,224]]","true",""
"visual-search-circle","28","2.2.0","89785","78592","visual_search_trial","1870","","f","","","","","","","","","","null","red_circle","0","[""images/Red_Triangle.png"",""images/Red_Circle.png"",""images/Red_Circle.png""]","true","[[241,169],[105,1],[27,203]]","true",""
"visual-search-circle","29","2.2.0","91871","78592","visual_search_trial","579","","j","","","","","","","","","","null","blue_triangle","0","[""images/Blue_Triangle.png"",""images/Blue_Triangle.png"",""images/Blue_Triangle.png"",""images/Blue_Triangle.png"",""images/Blue_Triangle.png"",""images/Blue_Triangle.png"",""images/Blue_Triangle.png"",""images/Blue_Triangle.png"",""images/Blue_Triangle.png""]","true","[[234,64],[169,8],[84,6],[17,60],[1,144],[42,219],[122,249],[203,222],[247,148]]","false",""
"visual-search-circle","30","2.2.0","94858","78592","visual_search_trial","1473","","j","","","","","","","","","","null","red_blue_mix","0","[""images/Blue_Circle.png"",""images/Blue_Circle.png"",""images/Blue_Triangle.png"",""images/Red_Circle.png"",""images/Blue_Triangle.png"",""images/Blue_Circle.png""]","true","[[240,171],[223,48],[107,1],[9,78],[26,201],[142,248]]","false",""
"visual-search-circle","31","2.2.0","97029","78592","visual_search_trial","656","","f","","","","","","","","","","null","red_circle","0","[""images/Red_Triangle.png"",""images/Red_Circle.png"",""images/Red_Circle.png"",""images/Red_Circle.png"",""images/Red_Circle.png"",""images/Red_Circle.png"",""images/Red_Circle.png"",""images/Red_Circle.png"",""images/Red_Circle.png""]","true","[[133,0],[51,23],[3,94],[12,179],[74,239],[159,245],[228,194],[249,111],[211,35]]","true",""
"visual-search-circle","32","2.2.0","99500","78592","visual_search_trial","960","","f","","","","","","","","","","null","blue_triangle","0","[""images/Red_Triangle.png"",""images/Blue_Triangle.png"",""images/Blue_Triangle.png""]","true","[[165,243],[207,30],[2,101]]","true",""
"visual-search-circle","33","2.2.0","101689","78592","visual_search_trial","678","","f","","","","","","","","","","null","blue_triangle","1","[""images/Red_Triangle.png"",""images/Blue_Triangle.png"",""images/Blue_Triangle.png"",""images/Blue_Triangle.png"",""images/Blue_Triangle.png"",""images/Blue_Triangle.png"",""images/Blue_Triangle.png"",""images/Blue_Triangle.png"",""images/Blue_Triangle.png""]","true","[[167,242],[233,187],[248,103],[205,29],[125,0],[44,29],[1,103],[16,187],[82,242]]","true",""
"visual-search-circle","34","2.2.0","103620","78592","visual_search_trial","422","","f","","","","","","","","","","null","red_blue_mix","1","[""images/Red_Triangle.png"",""images/Red_Circle.png"",""images/Red_Circle.png""]","true","[[7,82],[146,248],[220,44]]","true",""
"visual-search-circle","35","2.2.0","105802","78592","visual_search_trial","669","","j","","","","","","","","","","null","red_circle","1","[""images/Red_Circle.png"",""images/Red_Circle.png"",""images/Red_Circle.png"",""images/Red_Circle.png"",""images/Red_Circle.png"",""images/Red_Circle.png""]","true","[[205,29],[82,7],[1,103],[44,220],[167,242],[248,146]]","false",""
"visual-search-circle","36","2.2.0","107984","78592","visual_search_trial","678","","j","","","","","","","","","","null","red_blue_mix","1","[""images/Blue_Circle.png"",""images/Blue_Triangle.png"",""images/Blue_Circle.png"",""images/Blue_Triangle.png"",""images/Blue_Circle.png"",""images/Blue_Circle.png""]","true","[[249,140],[200,25],[76,9],[0,109],[49,224],[173,240]]","false",""
"visual-search-circle","37","2.2.0","110149","78592","visual_search_trial","654","","j","","","","","","","","","","null","blue_triangle","1","[""images/Blue_Triangle.png"",""images/Blue_Triangle.png"",""images/Blue_Triangle.png"",""images/Blue_Triangle.png"",""images/Blue_Triangle.png"",""images/Blue_Triangle.png"",""images/Blue_Triangle.png"",""images/Blue_Triangle.png"",""images/Blue_Triangle.png""]","true","[[114,249],[196,227],[245,157],[238,72],[177,11],[92,4],[22,53],[0,135],[36,213]]","false",""
"visual-search-circle","38","2.2.0","112287","78592","visual_search_trial","622","","f","","","","","","","","","","null","red_blue_mix","1","[""images/Red_Triangle.png"",""images/Blue_Circle.png"",""images/Blue_Circle.png"",""images/Blue_Circle.png"",""images/Red_Circle.png"",""images/Blue_Triangle.png""]","true","[[205,220],[248,103],[167,7],[44,29],[1,146],[82,242]]","true",""
"visual-search-circle","39","2.2.0","114353","78592","visual_search_trial","560","","f","","","","","","","","","","null","red_circle","1","[""images/Red_Triangle.png"",""images/Red_Circle.png"",""images/Red_Circle.png"",""images/Red_Circle.png"",""images/Red_Circle.png"",""images/Red_Circle.png"",""images/Red_Circle.png"",""images/Red_Circle.png"",""images/Red_Circle.png""]","true","[[74,239],[159,245],[228,194],[249,111],[211,35],[133,0],[51,23],[3,94],[12,179]]","true",""
"visual-search-circle","40","2.2.0","116378","78592","visual_search_trial","510","","f","","","","","","","","","","null","blue_triangle","1","[""images/Red_Triangle.png"",""images/Blue_Triangle.png"",""images/Blue_Triangle.png""]","true","[[246,153],[88,5],[39,216]]","true",""
"visual-search-circle","41","2.2.0","118343","78592","visual_search_trial","461","","f","","","","","","","","","","null","red_blue_mix","1","[""images/Red_Triangle.png"",""images/Blue_Triangle.png"",""images/Blue_Circle.png"",""images/Blue_Circle.png"",""images/Blue_Triangle.png"",""images/Red_Circle.png"",""images/Blue_Circle.png"",""images/Blue_Circle.png"",""images/Red_Circle.png""]","true","[[17,60],[1,144],[42,219],[122,249],[203,222],[247,148],[234,64],[169,8],[84,6]]","true",""
"visual-search-circle","42","2.2.0","120421","78592","visual_search_trial","568","","j","","","","","","","","","","null","blue_triangle","1","[""images/Blue_Triangle.png"",""images/Blue_Triangle.png"",""images/Blue_Triangle.png"",""images/Blue_Triangle.png"",""images/Blue_Triangle.png"",""images/Blue_Triangle.png""]","true","[[8,169],[105,248],[222,203],[241,80],[144,1],[27,46]]","false",""
"visual-search-circle","43","2.2.0","122663","78592","visual_search_trial","731","","j","","","","","","","","","","null","red_blue_mix","1","[""images/Red_Circle.png"",""images/Red_Circle.png"",""images/Blue_Triangle.png"",""images/Blue_Triangle.png"",""images/Blue_Triangle.png"",""images/Blue_Circle.png"",""images/Blue_Circle.png"",""images/Blue_Circle.png"",""images/Red_Circle.png""]","true","[[244,88],[193,20],[109,0],[33,39],[0,118],[25,200],[96,246],[181,236],[240,173]]","false",""
"visual-search-circle","44","2.2.0","125032","78592","visual_search_trial","864","","j","","","","","","","","","","null","red_circle","1","[""images/Red_Circle.png"",""images/Red_Circle.png"",""images/Red_Circle.png"",""images/Red_Circle.png"",""images/Red_Circle.png"",""images/Red_Circle.png"",""images/Red_Circle.png"",""images/Red_Circle.png"",""images/Red_Circle.png""]","true","[[46,27],[2,101],[15,185],[80,241],[165,243],[232,189],[248,105],[207,30],[127,0]]","false",""
"visual-search-circle","45","2.2.0","127161","78592","visual_search_trial","621","","j","","","","","","","","","","null","red_blue_mix","1","[""images/Blue_Circle.png"",""images/Blue_Triangle.png"",""images/Blue_Circle.png""]","true","[[249,114],[53,22],[72,238]]","false",""
"visual-search-circle","46","2.2.0","129156","78592","visual_search_trial","491","","f","","","","","","","","","","null","red_circle","1","[""images/Red_Triangle.png"",""images/Red_Circle.png"",""images/Red_Circle.png""]","true","[[68,13],[56,229],[249,131]]","true",""
"visual-search-circle","47","2.2.0","131237","78592","visual_search_trial","565","","j","","","","","","","","","","null","blue_triangle","1","[""images/Red_Triangle.png"",""images/Blue_Triangle.png"",""images/Blue_Triangle.png"",""images/Blue_Triangle.png"",""images/Blue_Triangle.png"",""images/Blue_Triangle.png""]","false","[[46,222],[169,241],[248,144],[203,27],[80,8],[1,105]]","true",""
"visual-search-circle","48","2.2.0","133414","78592","visual_search_trial","671","","j","","","","","","","","","","null","red_circle","1","[""images/Red_Circle.png"",""images/Red_Circle.png"",""images/Red_Circle.png""]","true","[[27,46],[105,248],[241,80]]","false",""
"visual-search-circle","49","2.2.0","135395","78592","visual_search_trial","474","","j","","","","","","","","","","null","blue_triangle","1","[""images/Blue_Triangle.png"",""images/Blue_Triangle.png"",""images/Blue_Triangle.png""]","true","[[232,189],[127,0],[15,185]]","false",""
"visual-search-circle","50","2.2.0","137453","78592","visual_search_trial","554","","f","","","","","","","","","","null","red_circle","1","[""images/Red_Triangle.png"",""images/Red_Circle.png"",""images/Red_Circle.png"",""images/Red_Circle.png"",""images/Red_Circle.png"",""images/Red_Circle.png""]","true","[[51,23],[0,138],[74,239],[198,226],[249,111],[175,10]]","true",""
"html-keyboard-response","51","2.1.0","139625","78592","break","2171","<p>Great job so far! Please rest for a few seconds before continuing.</p>
                 <p>Press the <strong>W</strong> key on your keyboard to continue.</p>","w","","","","","","","","","","","","","","","","","W"
"visual-search-circle","52","2.2.0","142314","78592","visual_search_trial","1179","","f","","","","","","","","","","null","red_blue_mix","2","[""images/Red_Triangle.png"",""images/Blue_Circle.png"",""images/Blue_Circle.png"",""images/Blue_Circle.png"",""images/Blue_Circle.png"",""images/Blue_Triangle.png""]","true","[[9,76],[25,200],[140,249],[240,173],[224,49],[109,0]]","true",""
"visual-search-circle","53","2.2.0","144422","78592","visual_search_trial","600","","f","","","","","","","","","","null","red_circle","2","[""images/Red_Triangle.png"",""images/Red_Circle.png"",""images/Red_Circle.png""]","true","[[58,231],[249,129],[66,14]]","true",""
"visual-search-circle","54","2.2.0","146482","78592","visual_search_trial","550","","j","","","","","","","","","","null","blue_triangle","2","[""images/Blue_Triangle.png"",""images/Blue_Triangle.png"",""images/Blue_Triangle.png""]","true","[[150,247],[217,41],[6,86]]","false",""
"visual-search-circle","55","2.2.0","148915","78592","visual_search_trial","920","","j","","","","","","","","","","null","red_blue_mix","2","[""images/Red_Circle.png"",""images/Blue_Circle.png"",""images/Red_Circle.png"",""images/Blue_Circle.png"",""images/Blue_Triangle.png"",""images/Blue_Circle.png"",""images/Red_Circle.png"",""images/Blue_Circle.png"",""images/Red_Circle.png""]","true","[[208,32],[129,0],[48,26],[2,99],[14,183],[78,240],[163,243],[231,191],[248,107]]","false",""
"visual-search-circle","56","2.2.0","151010","78592","visual_search_trial","568","","f","","","","","","","","","","null","blue_triangle","2","[""images/Red_Triangle.png"",""images/Blue_Triangle.png"",""images/Blue_Triangle.png"",""images/Blue_Triangle.png"",""images/Blue_Triangle.png"",""images/Blue_Triangle.png""]","true","[[49,25],[0,140],[76,240],[200,224],[249,109],[173,9]]","true",""
"visual-search-circle","57","2.2.0","153173","78592","visual_search_trial","660","","f","","","","","","","","","","null","red_blue_mix","2","[""images/Red_Triangle.png"",""images/Blue_Triangle.png"",""images/Blue_Triangle.png"",""images/Red_Circle.png"",""images/Blue_Triangle.png"",""images/Red_Circle.png"",""images/Red_Circle.png"",""images/Blue_Circle.png"",""images/Red_Circle.png""]","true","[[7,82],[7,167],[62,233],[146,248],[220,205],[250,125],[220,44],[146,1],[62,16]]","true",""
"visual-search-circle","58","2.2.0","155233","78592","visual_search_trial","551","","f","","","","","","","","","","null","red_circle","2","[""images/Red_Triangle.png"",""images/Red_Circle.png"",""images/Red_Circle.png"",""images/Red_Circle.png"",""images/Red_Circle.png"",""images/Red_Circle.png""]","true","[[198,23],[74,10],[0,111],[51,226],[175,239],[249,138]]","true",""
"visual-search-circle","59","2.2.0","157326","78592","visual_search_trial","582","","f","","","","","","","","","","null","blue_triangle","2","[""images/Red_Triangle.png"",""images/Blue_Triangle.png"",""images/Blue_Triangle.png""]","true","[[41,32],[86,243],[247,99]]","true",""
"visual-search-circle","60","2.2.0","159427","78592","visual_search_trial","589","","j","","","","","","","","","","null","red_blue_mix","2","[""images/Blue_Circle.png"",""images/Blue_Circle.png"",""images/Blue_Circle.png""]","true","[[236,181],[118,0],[20,193]]","false",""
"visual-search-circle","61","2.2.0","161622","78592","visual_search_trial","691","","j","","","","","","","","","","null","red_circle","2","[""images/Red_Circle.png"",""images/Red_Circle.png"",""images/Red_Circle.png""]","true","[[248,142],[78,9],[48,223]]","false",""
"visual-search-circle","62","2.2.0","163749","78592","visual_search_trial","616","","j","","","","","","","","","","null","blue_triangle","2","[""images/Blue_Triangle.png"",""images/Blue_Triangle.png"",""images/Blue_Triangle.png"",""images/Blue_Triangle.png"",""images/Blue_Triangle.png"",""images/Blue_Triangle.png""]","true","[[177,238],[249,135],[196,22],[72,11],[0,114],[53,227]]","false",""
"visual-search-circle","63","2.2.0","166008","78592","visual_search_trial","750","","j","","","","","","","","","","null","red_blue_mix","2","[""images/Blue_Circle.png"",""images/Red_Circle.png"",""images/Red_Circle.png"",""images/Blue_Triangle.png"",""images/Red_Circle.png"",""images/Red_Circle.png""]","true","[[33,210],[153,246],[244,161],[216,39],[96,3],[5,88]]","false",""
"visual-search-circle","64","2.2.0","168106","78592","visual_search_trial","582","","j","","","","","","","","","","null","red_circle","2","[""images/Red_Circle.png"",""images/Red_Circle.png"",""images/Red_Circle.png"",""images/Red_Circle.png"",""images/Red_Circle.png"",""images/Red_Circle.png"",""images/Red_Circle.png"",""images/Red_Circle.png"",""images/Red_Circle.png""]","true","[[191,231],[243,163],[240,78],[183,14],[99,2],[26,48],[0,129],[32,208],[107,248]]","false",""
"visual-search-circle","65","2.2.0","170048","78592","visual_search_trial","427","","j","","","","","","","","","","null","blue_triangle","2","[""images/Blue_Triangle.png"",""images/Blue_Triangle.png"",""images/Blue_Triangle.png"",""images/Blue_Triangle.png"",""images/Blue_Triangle.png"",""images/Blue_Triangle.png"",""images/Blue_Triangle.png"",""images/Blue_Triangle.png"",""images/Blue_Triangle.png""]","true","[[84,243],[169,241],[234,185],[247,101],[203,27],[122,0],[42,30],[1,105],[17,189]]","false",""
"visual-search-circle","66","2.2.0","172086","78592","visual_search_trial","527","","f","","","","","","","","","","null","red_circle","2","[""images/Red_Triangle.png"",""images/Red_Circle.png"",""images/Red_Circle.png"",""images/Red_Circle.png"",""images/Red_Circle.png"",""images/Red_Circle.png"",""images/Red_Circle.png"",""images/Red_Circle.png"",""images/Red_Circle.png""]","true","[[241,169],[243,84],[189,17],[105,1],[30,42],[0,122],[27,203],[101,247],[185,234]]","true",""
"visual-search-circle","67","2.2.0","174064","78592","visual_search_trial","459","","f","","","","","","","","","","null","blue_triangle","2","[""images/Red_Triangle.png"",""images/Blue_Triangle.png"",""images/Blue_Triangle.png"",""images/Blue_Triangle.png"",""images/Blue_Triangle.png"",""images/Blue_Triangle.png"",""images/Blue_Triangle.png"",""images/Blue_Triangle.png"",""images/Blue_Triangle.png""]","true","[[60,17],[6,84],[8,169],[64,234],[148,247],[222,203],[249,122],[219,42],[144,1]]","true",""
"visual-search-circle","68","2.2.0","176253","78592","visual_search_trial","682","","f","","","","","","","","","","null","red_blue_mix","2","[""images/Red_Triangle.png"",""images/Blue_Triangle.png"",""images/Blue_Triangle.png""]","true","[[35,38],[94,246],[245,90]]","true",""
"visual-search-circle","69","2.2.0","178506","78592","visual_search_trial","745","","j","","","","","","","","","","null","red_circle","2","[""images/Red_Circle.png"",""images/Red_Circle.png"",""images/Red_Circle.png"",""images/Red_Circle.png"",""images/Red_Circle.png"",""images/Red_Circle.png""]","true","[[214,38],[94,3],[4,90],[35,211],[155,246],[245,159]]","false",""
"visual-search-circle","70","2.2.0","180968","78592","visual_search_trial","959","","f","","","","","","","","","","null","red_blue_mix","3","[""images/Red_Triangle.png"",""images/Red_Circle.png"",""images/Blue_Triangle.png"",""images/Blue_Circle.png"",""images/Blue_Triangle.png"",""images/Blue_Triangle.png""]","true","[[214,211],[245,90],[155,3],[35,38],[4,159],[94,246]]","true",""
"visual-search-circle","71","2.2.0","183166","78592","visual_search_trial","685","","f","","","","","","","","","","null","blue_triangle","3","[""images/Red_Triangle.png"",""images/Blue_Triangle.png"",""images/Blue_Triangle.png"",""images/Blue_Triangle.png"",""images/Blue_Triangle.png"",""images/Blue_Triangle.png"",""images/Blue_Triangle.png"",""images/Blue_Triangle.png"",""images/Blue_Triangle.png""]","true","[[248,107],[208,32],[129,0],[48,26],[2,99],[14,183],[78,240],[163,243],[231,191]]","true",""
"visual-search-circle","72","2.2.0","185347","78592","visual_search_trial","664","","j","","","","","","","","","","null","red_blue_mix","3","[""images/Blue_Circle.png"",""images/Blue_Circle.png"",""images/Blue_Triangle.png"",""images/Blue_Circle.png"",""images/Blue_Circle.png"",""images/Blue_Triangle.png""]","true","[[14,183],[120,249],[231,191],[235,66],[129,0],[18,58]]","false",""
"visual-search-circle","73","2.2.0","188392","78592","visual_search_trial","1529","","f","","","","","","","","","","null","red_circle","3","[""images/Red_Triangle.png"",""images/Red_Circle.png"",""images/Red_Circle.png""]","true","[[109,0],[25,200],[240,173]]","true",""
"visual-search-circle","74","2.2.0","190429","78592","visual_search_trial","529","","f","","","","","","","","","","null","blue_triangle","3","[""images/Red_Triangle.png"",""images/Blue_Triangle.png"",""images/Blue_Triangle.png"",""images/Blue_Triangle.png"",""images/Blue_Triangle.png"",""images/Blue_Triangle.png""]","true","[[150,247],[243,163],[217,41],[99,2],[6,86],[32,208]]","true",""
"visual-search-circle","75","2.2.0","192434","78592","visual_search_trial","485","","f","","","","","","","","","","null","red_circle","3","[""images/Red_Triangle.png"",""images/Red_Circle.png"",""images/Red_Circle.png"",""images/Red_Circle.png"",""images/Red_Circle.png"",""images/Red_Circle.png"",""images/Red_Circle.png"",""images/Red_Circle.png"",""images/Red_Circle.png""]","true","[[247,148],[234,64],[169,8],[84,6],[17,60],[1,144],[42,219],[122,249],[203,222]]","true",""
"visual-search-circle","76","2.2.0","194606","78592","visual_search_trial","656","","j","","","","","","","","","","null","blue_triangle","3","[""images/Blue_Triangle.png"",""images/Blue_Triangle.png"",""images/Blue_Triangle.png"",""images/Blue_Triangle.png"",""images/Blue_Triangle.png"",""images/Blue_Triangle.png"",""images/Blue_Triangle.png"",""images/Blue_Triangle.png"",""images/Blue_Triangle.png""]","true","[[248,105],[207,30],[127,0],[46,27],[2,101],[15,185],[80,241],[165,243],[232,189]]","false",""
"visual-search-circle","77","2.2.0","196787","78592","visual_search_trial","666","","j","","","","","","","","","","null","red_blue_mix","3","[""images/Blue_Triangle.png"",""images/Blue_Triangle.png"",""images/Red_Circle.png"",""images/Red_Circle.png"",""images/Blue_Triangle.png"",""images/Blue_Triangle.png"",""images/Red_Circle.png"",""images/Blue_Triangle.png"",""images/Blue_Triangle.png""]","true","[[144,248],[219,207],[249,127],[222,46],[148,2],[64,15],[8,80],[6,165],[60,232]]","false",""
"visual-search-circle","78","2.2.0","198906","78592","visual_search_trial","616","","j","","","","","","","","","","null","red_circle","3","[""images/Red_Circle.png"",""images/Red_Circle.png"",""images/Red_Circle.png"",""images/Red_Circle.png"",""images/Red_Circle.png"",""images/Red_Circle.png""]","true","[[144,1],[27,46],[8,169],[105,248],[222,203],[241,80]]","false",""
"visual-search-circle","79","2.2.0","201032","78592","visual_search_trial","612","","j","","","","","","","","","","null","red_blue_mix","3","[""images/Blue_Triangle.png"",""images/Blue_Triangle.png"",""images/Red_Circle.png""]","true","[[207,219],[165,6],[2,148]]","false",""
"visual-search-circle","80","2.2.0","203075","78592","visual_search_trial","534","","f","","","","","","","","","","null","red_circle","3","[""images/Red_Triangle.png"",""images/Red_Circle.png"",""images/Red_Circle.png"",""images/Red_Circle.png"",""images/Red_Circle.png"",""images/Red_Circle.png""]","true","[[26,201],[142,248],[240,171],[223,48],[107,1],[9,78]]","true",""
"visual-search-circle","81","2.2.0","205268","78592","visual_search_trial","687","","f","","","","","","","","","","null","blue_triangle","3","[""images/Red_Triangle.png"",""images/Blue_Triangle.png"",""images/Blue_Triangle.png""]","true","[[159,4],[3,155],[211,214]]","true",""
"visual-search-circle","82","2.2.0","207977","78592","visual_search_trial","1203","","f","","","","","","","","","","null","red_blue_mix","3","[""images/Red_Triangle.png"",""images/Blue_Circle.png"",""images/Red_Circle.png"",""images/Blue_Triangle.png"",""images/Red_Circle.png"",""images/Red_Circle.png"",""images/Blue_Triangle.png"",""images/Blue_Circle.png"",""images/Blue_Triangle.png""]","true","[[232,60],[165,6],[80,8],[15,64],[2,148],[46,222],[127,249],[207,219],[248,144]]","true",""
"visual-search-circle","83","2.2.0","210107","78592","visual_search_trial","625","","j","","","","","","","","","","null","blue_triangle","3","[""images/Blue_Triangle.png"",""images/Blue_Triangle.png"",""images/Blue_Triangle.png"",""images/Blue_Triangle.png"",""images/Blue_Triangle.png"",""images/Blue_Triangle.png""]","true","[[194,228],[249,116],[179,12],[55,21],[0,133],[70,237]]","false",""
"visual-search-circle","84","2.2.0","212189","78592","visual_search_trial","568","","j","","","","","","","","","","null","red_circle","3","[""images/Red_Circle.png"",""images/Red_Circle.png"",""images/Red_Circle.png"",""images/Red_Circle.png"",""images/Red_Circle.png"",""images/Red_Circle.png"",""images/Red_Circle.png"",""images/Red_Circle.png"",""images/Red_Circle.png""]","true","[[0,109],[20,193],[88,244],[173,240],[236,181],[246,96],[200,25],[118,0],[39,33]]","false",""
"visual-search-circle","85","2.2.0","214309","78592","visual_search_trial","612","","f","","","","","","","","","","null","red_blue_mix","3","[""images/Red_Triangle.png"",""images/Red_Circle.png"",""images/Blue_Circle.png""]","true","[[228,194],[133,0],[12,179]]","true",""
"visual-search-circle","86","2.2.0","216422","78592","visual_search_trial","611","","j","","","","","","","","","","null","blue_triangle","3","[""images/Blue_Triangle.png"",""images/Blue_Triangle.png"",""images/Blue_Triangle.png""]","true","[[249,114],[53,22],[72,238]]","false",""
"visual-search-circle","87","2.2.0","218497","78592","visual_search_trial","566","","j","","","","","","","","","","null","red_circle","3","[""images/Red_Circle.png"",""images/Red_Circle.png"",""images/Red_Circle.png""]","true","[[29,205],[242,167],[103,1]]","false",""
"html-keyboard-response","88","2.1.0","220547","78592","break","2050","<p>Great job so far! Please rest for a few seconds before continuing.</p>
                 <p>Press the <strong>E</strong> key on your keyboard to continue.</p>","e","","","","","","","","","","","","","","","","","E"
"visual-search-circle","89","2.2.0","222511","78592","visual_search_trial","454","","f","","","","","","","","","","null","red_blue_mix","4","[""images/Red_Triangle.png"",""images/Blue_Triangle.png"",""images/Blue_Circle.png""]","true","[[70,12],[55,228],[249,133]]","true",""
"visual-search-circle","90","2.2.0","224685","78592","visual_search_trial","658","","j","","","","","","","","","","null","red_circle","4","[""images/Red_Circle.png"",""images/Red_Circle.png"",""images/Red_Circle.png"",""images/Red_Circle.png"",""images/Red_Circle.png"",""images/Red_Circle.png"",""images/Red_Circle.png"",""images/Red_Circle.png"",""images/Red_Circle.png""]","true","[[2,150],[48,223],[129,249],[208,217],[248,142],[231,58],[163,6],[78,9],[14,66]]","false",""
"visual-search-circle","91","2.2.0","226679","78592","visual_search_trial","482","","j","","","","","","","","","","null","blue_triangle","4","[""images/Red_Triangle.png"",""images/Blue_Triangle.png"",""images/Blue_Triangle.png""]","false","[[228,194],[133,0],[12,179]]","true",""
"visual-search-circle","92","2.2.0","228898","78592","visual_search_trial","701","","f","","","","","","","","","","null","red_blue_mix","4","[""images/Red_Triangle.png"",""images/Blue_Triangle.png"",""images/Blue_Circle.png"",""images/Blue_Triangle.png"",""images/Blue_Triangle.png"",""images/Blue_Triangle.png""]","true","[[94,246],[214,211],[245,90],[155,3],[35,38],[4,159]]","true",""
"visual-search-circle","93","2.2.0","230877","78592","visual_search_trial","476","","j","","","","","","","","","","null","red_circle","4","[""images/Red_Circle.png"",""images/Red_Circle.png"",""images/Red_Circle.png""]","true","[[16,187],[233,187],[125,0]]","false",""
"visual-search-circle","94","2.2.0","232954","78592","visual_search_trial","560","","j","","","","","","","","","","null","blue_triangle","4","[""images/Blue_Triangle.png"",""images/Blue_Triangle.png"",""images/Blue_Triangle.png"",""images/Blue_Triangle.png"",""images/Blue_Triangle.png"",""images/Blue_Triangle.png"",""images/Blue_Triangle.png"",""images/Blue_Triangle.png"",""images/Blue_Triangle.png""]","true","[[0,133],[35,211],[111,249],[194,228],[245,159],[239,74],[179,12],[94,3],[23,51]]","false",""
"visual-search-circle","95","2.2.0","235149","78592","visual_search_trial","677","","j","","","","","","","","","","null","red_blue_mix","4","[""images/Blue_Triangle.png"",""images/Blue_Triangle.png"",""images/Red_Circle.png"",""images/Red_Circle.png"",""images/Blue_Circle.png"",""images/Blue_Circle.png""]","true","[[86,6],[2,99],[41,217],[163,243],[247,150],[208,32]]","false",""
"visual-search-circle","96","2.2.0","237097","78592","visual_search_trial","427","","f","","","","","","","","","","null","red_circle","4","[""images/Red_Triangle.png"",""images/Red_Circle.png"",""images/Red_Circle.png""]","true","[[226,51],[10,74],[138,249]]","true",""
"visual-search-circle","97","2.2.0","239143","78592","visual_search_trial","538","","f","","","","","","","","","","null","blue_triangle","4","[""images/Red_Triangle.png"",""images/Blue_Triangle.png"",""images/Blue_Triangle.png"",""images/Blue_Triangle.png"",""images/Blue_Triangle.png"",""images/Blue_Triangle.png"",""images/Blue_Triangle.png"",""images/Blue_Triangle.png"",""images/Blue_Triangle.png""]","true","[[237,70],[175,10],[90,4],[21,55],[0,138],[38,214],[116,249],[198,226],[246,155]]","true",""
"visual-search-circle","98","2.2.0","241340","78592","visual_search_trial","691","","j","","","","","","","","","","null","red_blue_mix","4","[""images/Blue_Circle.png"",""images/Red_Circle.png"",""images/Blue_Triangle.png""]","true","[[189,232],[185,15],[0,127]]","false",""
"visual-search-circle","99","2.2.0","243302","78592","visual_search_trial","449","","j","","","","","","","","","","null","blue_triangle","4","[""images/Blue_Triangle.png"",""images/Blue_Triangle.png"",""images/Blue_Triangle.png""]","true","[[244,161],[96,3],[33,210]]","false",""
"visual-search-circle","100","2.2.0","245429","78592","visual_search_trial","621","","f","","","","","","","","","","null","red_circle","4","[""images/Red_Triangle.png"",""images/Red_Circle.png"",""images/Red_Circle.png"",""images/Red_Circle.png"",""images/Red_Circle.png"",""images/Red_Circle.png"",""images/Red_Circle.png"",""images/Red_Circle.png"",""images/Red_Circle.png""]","true","[[189,17],[105,1],[30,42],[0,122],[27,203],[101,247],[185,234],[241,169],[243,84]]","true",""
"visual-search-circle","101","2.2.0","247696","78592","visual_search_trial","744","","j","","","","","","","","","","null","red_blue_mix","4","[""images/Red_Circle.png"",""images/Red_Circle.png"",""images/Blue_Triangle.png"",""images/Red_Circle.png"",""images/Red_Circle.png"",""images/Blue_Triangle.png"",""images/Red_Circle.png"",""images/Red_Circle.png"",""images/Blue_Circle.png""]","true","[[51,226],[133,249],[211,214],[249,138],[228,55],[159,4],[74,10],[12,70],[3,155]]","false",""
"visual-search-circle","102","2.2.0","249936","78592","visual_search_trial","724","","j","","","","","","","","","","null","red_circle","4","[""images/Red_Circle.png"",""images/Red_Circle.png"",""images/Red_Circle.png"",""images/Red_Circle.png"",""images/Red_Circle.png"",""images/Red_Circle.png""]","true","[[84,243],[207,219],[247,101],[165,6],[42,30],[2,148]]","false",""
"visual-search-circle","103","2.2.0","252041","78592","visual_search_trial","594","","j","","","","","","","","","","null","blue_triangle","4","[""images/Blue_Triangle.png"",""images/Blue_Triangle.png"",""images/Blue_Triangle.png"",""images/Blue_Triangle.png"",""images/Blue_Triangle.png"",""images/Blue_Triangle.png""]","true","[[222,46],[105,1],[8,80],[27,203],[144,248],[241,169]]","false",""
"visual-search-circle","104","2.2.0","254088","78592","visual_search_trial","531","","f","","","","","","","","","","null","red_circle","4","[""images/Red_Triangle.png"",""images/Red_Circle.png"",""images/Red_Circle.png"",""images/Red_Circle.png"",""images/Red_Circle.png"",""images/Red_Circle.png""]","true","[[46,27],[1,144],[80,241],[203,222],[248,105],[169,8]]","true",""
"visual-search-circle","105","2.2.0","256270","78592","visual_search_trial","667","","j","","","","","","","","","","null","red_blue_mix","4","[""images/Red_Triangle.png"",""images/Red_Circle.png"",""images/Blue_Triangle.png"",""images/Blue_Triangle.png"",""images/Blue_Triangle.png"",""images/Red_Circle.png"",""images/Blue_Circle.png"",""images/Red_Circle.png"",""images/Blue_Circle.png""]","false","[[163,6],[78,9],[14,66],[2,150],[48,223],[129,249],[208,217],[248,142],[231,58]]","true",""
"visual-search-circle","106","2.2.0","258320","78592","visual_search_trial","546","","j","","","","","","","","","","null","blue_triangle","4","[""images/Red_Triangle.png"",""images/Blue_Triangle.png"",""images/Blue_Triangle.png"",""images/Blue_Triangle.png"",""images/Blue_Triangle.png"",""images/Blue_Triangle.png""]","false","[[219,207],[243,84],[148,2],[30,42],[6,165],[101,247]]","true",""
"visual-search-circle","107","2.2.0","260312","78592","visual_search_trial","470","","j","","","","","","","","","","null","blue_triangle","5","[""images/Blue_Triangle.png"",""images/Blue_Triangle.png"",""images/Blue_Triangle.png"",""images/Blue_Triangle.png"",""images/Blue_Triangle.png"",""images/Blue_Triangle.png"",""images/Blue_Triangle.png"",""images/Blue_Triangle.png"",""images/Blue_Triangle.png""]","true","[[228,55],[159,4],[74,10],[12,70],[3,155],[51,226],[133,249],[211,214],[249,138]]","false",""
"visual-search-circle","108","2.2.0","262214","78592","visual_search_trial","393","","f","","","","","","","","","","null","red_blue_mix","5","[""images/Red_Triangle.png"",""images/Blue_Triangle.png"",""images/Red_Circle.png"",""images/Red_Circle.png"",""images/Blue_Circle.png"",""images/Blue_Circle.png""]","true","[[3,153],[88,244],[210,216],[246,96],[161,5],[39,33]]","true",""
"visual-search-circle","109","2.2.0","264271","78592","visual_search_trial","544","","j","","","","","","","","","","null","red_circle","5","[""images/Red_Circle.png"",""images/Red_Circle.png"",""images/Red_Circle.png""]","true","[[238,72],[22,53],[114,249]]","false",""
"visual-search-circle","110","2.2.0","266347","78592","visual_search_trial","571","","j","","","","","","","","","","null","blue_triangle","5","[""images/Blue_Triangle.png"",""images/Blue_Triangle.png"",""images/Blue_Triangle.png"",""images/Blue_Triangle.png"",""images/Blue_Triangle.png"",""images/Blue_Triangle.png""]","true","[[205,220],[248,103],[167,7],[44,29],[1,146],[82,242]]","false",""
"visual-search-circle","111","2.2.0","268203","78592","visual_search_trial","349","","f","","","","","","","","","","null","red_circle","5","[""images/Red_Triangle.png"",""images/Red_Circle.png"",""images/Red_Circle.png"",""images/Red_Circle.png"",""images/Red_Circle.png"",""images/Red_Circle.png""]","true","[[0,140],[76,240],[200,224],[249,109],[173,9],[49,25]]","true",""
"visual-search-circle","112","2.2.0","270683","78592","visual_search_trial","969","","j","","","","","","","","","","null","red_blue_mix","5","[""images/Blue_Triangle.png"",""images/Blue_Circle.png"",""images/Blue_Circle.png"",""images/Blue_Triangle.png"",""images/Blue_Triangle.png"",""images/Red_Circle.png"",""images/Red_Circle.png"",""images/Blue_Circle.png"",""images/Red_Circle.png""]","true","[[133,249],[211,214],[249,138],[228,55],[159,4],[74,10],[12,70],[3,155],[51,226]]","false",""
"visual-search-circle","113","2.2.0","272692","78592","visual_search_trial","493","","f","","","","","","","","","","null","blue_triangle","5","[""images/Red_Triangle.png"",""images/Blue_Triangle.png"",""images/Blue_Triangle.png"",""images/Blue_Triangle.png"",""images/Blue_Triangle.png"",""images/Blue_Triangle.png"",""images/Blue_Triangle.png"",""images/Blue_Triangle.png"",""images/Blue_Triangle.png""]","true","[[101,247],[185,234],[241,169],[243,84],[189,17],[105,1],[30,42],[0,122],[27,203]]","true",""
"visual-search-circle","114","2.2.0","274678","78592","visual_search_trial","481","","f","","","","","","","","","","null","red_blue_mix","5","[""images/Red_Triangle.png"",""images/Blue_Triangle.png"",""images/Blue_Circle.png""]","true","[[0,125],[187,233],[187,16]]","true",""
"visual-search-circle","115","2.2.0","276596","78592","visual_search_trial","414","","f","","","","","","","","","","null","red_circle","5","[""images/Red_Triangle.png"",""images/Red_Circle.png"",""images/Red_Circle.png""]","true","[[175,10],[0,138],[198,226]]","true",""
"visual-search-circle","116","2.2.0","278585","78592","visual_search_trial","482","","j","","","","","","","","","","null","red_blue_mix","5","[""images/Red_Circle.png"",""images/Red_Circle.png"",""images/Blue_Circle.png"",""images/Blue_Circle.png"",""images/Blue_Circle.png"",""images/Red_Circle.png""]","true","[[227,196],[238,72],[135,0],[22,53],[11,177],[114,249]]","false",""
"visual-search-circle","117","2.2.0","280609","78592","visual_search_trial","504","","f","","","","","","","","","","null","red_circle","5","[""images/Red_Triangle.png"",""images/Red_Circle.png"",""images/Red_Circle.png"",""images/Red_Circle.png"",""images/Red_Circle.png"",""images/Red_Circle.png"",""images/Red_Circle.png"",""images/Red_Circle.png"",""images/Red_Circle.png""]","true","[[90,245],[175,239],[237,179],[246,94],[198,23],[116,0],[38,35],[0,111],[21,194]]","true",""
"visual-search-circle","118","2.2.0","282595","78592","visual_search_trial","478","","f","","","","","","","","","","null","blue_triangle","5","[""images/Red_Triangle.png"",""images/Blue_Triangle.png"",""images/Blue_Triangle.png""]","true","[[207,30],[2,101],[165,243]]","true",""
"visual-search-circle","119","2.2.0","284624","78592","visual_search_trial","520","","j","","","","","","","","","","null","red_circle","5","[""images/Red_Circle.png"",""images/Red_Circle.png"",""images/Red_Circle.png"",""images/Red_Circle.png"",""images/Red_Circle.png"",""images/Red_Circle.png""]","true","[[239,74],[138,0],[23,51],[10,175],[111,249],[226,198]]","false",""
"visual-search-circle","120","2.2.0","286656","78592","visual_search_trial","521","","j","","","","","","","","","","null","blue_triangle","5","[""images/Blue_Triangle.png"",""images/Blue_Triangle.png"",""images/Blue_Triangle.png""]","true","[[44,220],[248,146],[82,7]]","false",""
"visual-search-circle","121","2.2.0","288559","78592","visual_search_trial","393","","f","","","","","","","","","","null","red_blue_mix","5","[""images/Red_Triangle.png"",""images/Blue_Circle.png"",""images/Blue_Circle.png"",""images/Red_Circle.png"",""images/Red_Circle.png"",""images/Blue_Circle.png"",""images/Blue_Circle.png"",""images/Blue_Circle.png"",""images/Red_Circle.png""]","true","[[15,64],[2,148],[46,222],[127,249],[207,219],[248,144],[232,60],[165,6],[80,8]]","true",""
"visual-search-circle","122","2.2.0","290554","78592","visual_search_trial","480","","j","","","","","","","","","","null","red_circle","5","[""images/Red_Circle.png"",""images/Red_Circle.png"",""images/Red_Circle.png"",""images/Red_Circle.png"",""images/Red_Circle.png"",""images/Red_Circle.png"",""images/Red_Circle.png"",""images/Red_Circle.png"",""images/Red_Circle.png""]","true","[[191,231],[243,163],[240,78],[183,14],[99,2],[26,48],[0,129],[32,208],[107,248]]","false",""
"visual-search-circle","123","2.2.0","292517","78592","visual_search_trial","461","","f","","","","","","","","","","null","red_blue_mix","5","[""images/Blue_Triangle.png"",""images/Blue_Triangle.png"",""images/Blue_Circle.png""]","false","[[127,249],[232,60],[15,64]]","false",""
"visual-search-circle","124","2.2.0","294492","78592","visual_search_trial","467","","f","","","","","","","","","","null","blue_triangle","5","[""images/Red_Triangle.png"",""images/Blue_Triangle.png"",""images/Blue_Triangle.png"",""images/Blue_Triangle.png"",""images/Blue_Triangle.png"",""images/Blue_Triangle.png""]","true","[[109,0],[9,76],[25,200],[140,249],[240,173],[224,49]]","true",""
"html-keyboard-response","125","2.1.0","295495","78592","break","1003","<p>Great job so far! Please rest for a few seconds before continuing.</p>
                 <p>Press the <strong>B</strong> key on your keyboard to continue.</p>","b","","","","","","","","","","","","","","","","","B"
"visual-search-circle","126","2.2.0","297511","78592","visual_search_trial","500","","j","","","","","","","","","","null","red_circle","6","[""images/Red_Circle.png"",""images/Red_Circle.png"",""images/Red_Circle.png""]","true","[[234,64],[17,60],[122,249]]","false",""
"visual-search-circle","127","2.2.0","299708","78592","visual_search_trial","681","","j","","","","","","","","","","null","red_blue_mix","6","[""images/Red_Circle.png"",""images/Blue_Triangle.png"",""images/Blue_Circle.png"",""images/Blue_Circle.png"",""images/Blue_Circle.png"",""images/Blue_Triangle.png"",""images/Blue_Circle.png"",""images/Red_Circle.png"",""images/Blue_Circle.png""]","true","[[96,246],[181,236],[240,173],[244,88],[193,20],[109,0],[33,39],[0,118],[25,200]]","false",""
"visual-search-circle","128","2.2.0","301667","78592","visual_search_trial","454","","f","","","","","","","","","","null","red_circle","6","[""images/Red_Triangle.png"",""images/Red_Circle.png"",""images/Red_Circle.png""]","true","[[109,0],[25,200],[240,173]]","true",""
"visual-search-circle","129","2.2.0","303613","78592","visual_search_trial","431","","j","","","","","","","","","","null","blue_triangle","6","[""images/Blue_Triangle.png"",""images/Blue_Triangle.png"",""images/Blue_Triangle.png"",""images/Blue_Triangle.png"",""images/Blue_Triangle.png"",""images/Blue_Triangle.png""]","true","[[148,2],[30,42],[6,165],[101,247],[219,207],[243,84]]","false",""
"visual-search-circle","130","2.2.0","305792","78592","visual_search_trial","673","","j","","","","","","","","","","null","red_blue_mix","6","[""images/Blue_Triangle.png"",""images/Blue_Circle.png"",""images/Blue_Triangle.png"",""images/Red_Circle.png"",""images/Blue_Triangle.png"",""images/Blue_Triangle.png""]","true","[[99,247],[217,208],[243,86],[150,2],[32,41],[6,163]]","false",""
"visual-search-circle","131","2.2.0","307766","78592","visual_search_trial","459","","f","","","","","","","","","","null","red_circle","6","[""images/Red_Triangle.png"",""images/Red_Circle.png"",""images/Red_Circle.png"",""images/Red_Circle.png"",""images/Red_Circle.png"",""images/Red_Circle.png""]","true","[[157,4],[36,36],[4,157],[92,245],[213,213],[245,92]]","true",""
"visual-search-circle","132","2.2.0","309705","78592","visual_search_trial","429","","j","","","","","","","","","","null","blue_triangle","6","[""images/Red_Triangle.png"",""images/Blue_Triangle.png"",""images/Blue_Triangle.png"",""images/Blue_Triangle.png"",""images/Blue_Triangle.png"",""images/Blue_Triangle.png""]","false","[[214,211],[245,90],[155,3],[35,38],[4,159],[94,246]]","true",""
"visual-search-circle","133","2.2.0","311774","78592","visual_search_trial","558","","f","","","","","","","","","","null","red_blue_mix","6","[""images/Red_Triangle.png"",""images/Blue_Circle.png"",""images/Red_Circle.png"",""images/Red_Circle.png"",""images/Red_Circle.png"",""images/Blue_Triangle.png"",""images/Red_Circle.png"",""images/Blue_Triangle.png"",""images/Red_Circle.png""]","true","[[243,86],[191,18],[107,1],[32,41],[0,120],[26,201],[99,247],[183,235],[240,171]]","true",""
"visual-search-circle","134","2.2.0","313826","78592","visual_search_trial","547","","j","","","","","","","","","","null","blue_triangle","6","[""images/Blue_Triangle.png"",""images/Blue_Triangle.png"",""images/Blue_Triangle.png"",""images/Blue_Triangle.png"",""images/Blue_Triangle.png"",""images/Blue_Triangle.png"",""images/Blue_Triangle.png"",""images/Blue_Triangle.png"",""images/Blue_Triangle.png""]","true","[[122,0],[42,30],[1,105],[17,189],[84,243],[169,241],[234,185],[247,101],[203,27]]","false",""
"visual-search-circle","135","2.2.0","315779","78592","visual_search_trial","442","","f","","","","","","","","","","null","red_blue_mix","6","[""images/Red_Triangle.png"",""images/Blue_Circle.png"",""images/Red_Circle.png""]","true","[[35,38],[94,246],[245,90]]","true",""
"visual-search-circle","136","2.2.0","317902","78592","visual_search_trial","611","","f","","","","","","","","","","null","red_circle","6","[""images/Red_Triangle.png"",""images/Red_Circle.png"",""images/Red_Circle.png"",""images/Red_Circle.png"",""images/Red_Circle.png"",""images/Red_Circle.png"",""images/Red_Circle.png"",""images/Red_Circle.png"",""images/Red_Circle.png""]","true","[[53,227],[135,249],[213,213],[249,135],[227,53],[157,4],[72,11],[11,72],[4,157]]","true",""
"visual-search-circle","137","2.2.0","320210","78592","visual_search_trial","796","","f","","","","","","","","","","null","blue_triangle","6","[""images/Red_Triangle.png"",""images/Blue_Triangle.png"",""images/Blue_Triangle.png""]","true","[[235,183],[120,0],[18,191]]","true",""
"visual-search-circle","138","2.2.0","322249","78592","visual_search_trial","522","","j","","","","","","","","","","null","red_circle","6","[""images/Red_Circle.png"",""images/Red_Circle.png"",""images/Red_Circle.png"",""images/Red_Circle.png"",""images/Red_Circle.png"",""images/Red_Circle.png"",""images/Red_Circle.png"",""images/Red_Circle.png"",""images/Red_Circle.png""]","true","[[219,207],[249,127],[222,46],[148,2],[64,15],[8,80],[6,165],[60,232],[144,248]]","false",""
"visual-search-circle","139","2.2.0","324303","78592","visual_search_trial","550","","f","","","","","","","","","","null","blue_triangle","6","[""images/Red_Triangle.png"",""images/Blue_Triangle.png"",""images/Blue_Triangle.png"",""images/Blue_Triangle.png"",""images/Blue_Triangle.png"",""images/Blue_Triangle.png"",""images/Blue_Triangle.png"",""images/Blue_Triangle.png"",""images/Blue_Triangle.png""]","true","[[25,200],[96,246],[181,236],[240,173],[244,88],[193,20],[109,0],[33,39],[0,118]]","true",""
"visual-search-circle","140","2.2.0","326277","78592","visual_search_trial","470","","f","","","","","","","","","","null","red_blue_mix","6","[""images/Red_Triangle.png"",""images/Blue_Triangle.png"",""images/Red_Circle.png"",""images/Blue_Triangle.png"",""images/Blue_Circle.png"",""images/Blue_Triangle.png""]","true","[[15,64],[17,189],[127,249],[234,185],[232,60],[122,0]]","true",""
"visual-search-circle","141","2.2.0","328278","78592","visual_search_trial","498","","j","","","","","","","","","","null","blue_triangle","6","[""images/Blue_Triangle.png"",""images/Blue_Triangle.png"",""images/Blue_Triangle.png""]","true","[[0,120],[183,235],[191,18]]","false",""
"visual-search-circle","142","2.2.0","330423","78592","visual_search_trial","631","","j","","","","","","","","","","null","red_circle","6","[""images/Red_Circle.png"",""images/Red_Circle.png"",""images/Red_Circle.png"",""images/Red_Circle.png"",""images/Red_Circle.png"",""images/Red_Circle.png""]","true","[[169,8],[46,27],[1,144],[80,241],[203,222],[248,105]]","false",""
"visual-search-circle","143","2.2.0","332618","78592","visual_search_trial","688","","j","","","","","","","","","","null","red_blue_mix","6","[""images/Blue_Triangle.png"",""images/Blue_Circle.png"",""images/Blue_Triangle.png""]","true","[[249,109],[49,25],[76,240]]","false",""
"visual-search-circle","144","2.2.0","334570","78592","visual_search_trial","448","","j","","","","","","","","","","null","red_circle","7","[""images/Red_Circle.png"",""images/Red_Circle.png"",""images/Red_Circle.png"",""images/Red_Circle.png"",""images/Red_Circle.png"",""images/Red_Circle.png""]","true","[[196,227],[249,114],[177,11],[53,22],[0,135],[72,238]]","false",""
"visual-search-circle","145","2.2.0","336694","78592","visual_search_trial","608","","f","","","","","","","","","","null","red_blue_mix","7","[""images/Red_Triangle.png"",""images/Blue_Circle.png"",""images/Red_Circle.png"",""images/Red_Circle.png"",""images/Blue_Circle.png"",""images/Blue_Circle.png""]","true","[[1,103],[44,220],[167,242],[248,146],[205,29],[82,7]]","true",""
"visual-search-circle","146","2.2.0","338949","78592","visual_search_trial","752","","f","","","","","","","","","","null","blue_triangle","7","[""images/Red_Triangle.png"",""images/Blue_Triangle.png"",""images/Blue_Triangle.png""]","true","[[248,103],[44,29],[82,242]]","true",""
"visual-search-circle","147","2.2.0","340976","78592","visual_search_trial","514","","j","","","","","","","","","","null","red_blue_mix","7","[""images/Blue_Circle.png"",""images/Blue_Triangle.png"",""images/Blue_Circle.png"",""images/Blue_Circle.png"",""images/Blue_Triangle.png"",""images/Blue_Circle.png""]","true","[[167,242],[248,146],[205,29],[82,7],[1,103],[44,220]]","false",""
"visual-search-circle","148","2.2.0","343049","78592","visual_search_trial","571","","j","","","","","","","","","","null","blue_triangle","7","[""images/Blue_Triangle.png"",""images/Blue_Triangle.png"",""images/Blue_Triangle.png"",""images/Blue_Triangle.png"",""images/Blue_Triangle.png"",""images/Blue_Triangle.png""]","true","[[201,223],[248,107],[171,9],[48,26],[1,142],[78,240]]","false",""
"visual-search-circle","149","2.2.0","345335","78592","visual_search_trial","778","","f","","","","","","","","","","null","red_circle","7","[""images/Red_Triangle.png"",""images/Red_Circle.png"",""images/Red_Circle.png"",""images/Red_Circle.png"",""images/Red_Circle.png"",""images/Red_Circle.png"",""images/Red_Circle.png"",""images/Red_Circle.png"",""images/Red_Circle.png""]","true","[[249,131],[224,49],[153,3],[68,13],[9,76],[5,161],[56,229],[140,249],[216,210]]","true",""
"visual-search-circle","150","2.2.0","347588","78592","visual_search_trial","752","","j","","","","","","","","","","null","red_blue_mix","7","[""images/Red_Circle.png"",""images/Blue_Circle.png"",""images/Blue_Triangle.png""]","true","[[243,163],[99,2],[32,208]]","false",""
"visual-search-circle","151","2.2.0","349551","78592","visual_search_trial","449","","f","","","","","","","","","","null","blue_triangle","7","[""images/Red_Triangle.png"",""images/Blue_Triangle.png"",""images/Blue_Triangle.png"",""images/Blue_Triangle.png"",""images/Blue_Triangle.png"",""images/Blue_Triangle.png""]","true","[[214,38],[94,3],[4,90],[35,211],[155,246],[245,159]]","true",""
"visual-search-circle","152","2.2.0","351611","78592","visual_search_trial","553","","f","","","","","","","","","","null","red_blue_mix","7","[""images/Red_Triangle.png"",""images/Blue_Circle.png"",""images/Red_Circle.png"",""images/Red_Circle.png"",""images/Red_Circle.png"",""images/Blue_Circle.png"",""images/Blue_Circle.png"",""images/Blue_Circle.png"",""images/Red_Circle.png""]","true","[[125,250],[205,220],[248,146],[233,62],[167,7],[82,7],[16,62],[1,146],[44,220]]","true",""
"visual-search-circle","153","2.2.0","353614","78592","visual_search_trial","494","","f","","","","","","","","","","null","blue_triangle","7","[""images/Red_Triangle.png"",""images/Blue_Triangle.png"",""images/Blue_Triangle.png"",""images/Blue_Triangle.png"",""images/Blue_Triangle.png"",""images/Blue_Triangle.png"",""images/Blue_Triangle.png"",""images/Blue_Triangle.png"",""images/Blue_Triangle.png""]","true","[[246,96],[200,25],[118,0],[39,33],[0,109],[20,193],[88,244],[173,240],[236,181]]","true",""
"visual-search-circle","154","2.2.0","355532","78592","visual_search_trial","413","","f","","","","","","","","","","null","red_circle","7","[""images/Red_Triangle.png"",""images/Red_Circle.png"",""images/Red_Circle.png""]","true","[[66,14],[58,231],[249,129]]","true",""
"visual-search-circle","155","2.2.0","357538","78592","visual_search_trial","498","","f","","","","","","","","","","null","red_blue_mix","7","[""images/Red_Triangle.png"",""images/Blue_Triangle.png"",""images/Red_Circle.png""]","true","[[157,245],[213,36],[4,92]]","true",""
"visual-search-circle","156","2.2.0","359487","78592","visual_search_trial","431","","f","","","","","","","","","","null","red_circle","7","[""images/Red_Triangle.png"",""images/Red_Circle.png"",""images/Red_Circle.png"",""images/Red_Circle.png"",""images/Red_Circle.png"",""images/Red_Circle.png""]","true","[[2,150],[86,243],[208,217],[247,99],[163,6],[41,32]]","true",""
"visual-search-circle","157","2.2.0","362050","78592","visual_search_trial","1054","","j","","","","","","","","","","null","blue_triangle","7","[""images/Blue_Triangle.png"",""images/Blue_Triangle.png"",""images/Blue_Triangle.png"",""images/Blue_Triangle.png"",""images/Blue_Triangle.png"",""images/Blue_Triangle.png"",""images/Blue_Triangle.png"",""images/Blue_Triangle.png"",""images/Blue_Triangle.png""]","true","[[196,22],[114,0],[36,36],[0,114],[22,196],[92,245],[177,238],[238,177],[245,92]]","false",""
"visual-search-circle","158","2.2.0","364551","78592","visual_search_trial","988","","j","","","","","","","","","","null","red_blue_mix","7","[""images/Blue_Triangle.png"",""images/Red_Circle.png"",""images/Blue_Triangle.png"",""images/Blue_Circle.png"",""images/Blue_Triangle.png"",""images/Blue_Triangle.png"",""images/Blue_Circle.png"",""images/Blue_Triangle.png"",""images/Red_Circle.png""]","true","[[15,64],[2,148],[46,222],[127,249],[207,219],[248,144],[232,60],[165,6],[80,8]]","false",""
"visual-search-circle","159","2.2.0","367363","78592","visual_search_trial","1305","","j","","","","","","","","","","null","red_circle","7","[""images/Red_Circle.png"",""images/Red_Circle.png"",""images/Red_Circle.png"",""images/Red_Circle.png"",""images/Red_Circle.png"",""images/Red_Circle.png"",""images/Red_Circle.png"",""images/Red_Circle.png"",""images/Red_Circle.png""]","true","[[39,33],[0,109],[20,193],[88,244],[173,240],[236,181],[246,96],[200,25],[118,0]]","false",""
"visual-search-circle","160","2.2.0","369463","78592","visual_search_trial","595","","j","","","","","","","","","","null","blue_triangle","7","[""images/Blue_Triangle.png"",""images/Blue_Triangle.png"",""images/Blue_Triangle.png""]","true","[[32,208],[243,163],[99,2]]","false",""
"visual-search-circle","161","2.2.0","371449","78592","visual_search_trial","467","","j","","","","","","","","","","null","red_circle","7","[""images/Red_Circle.png"",""images/Red_Circle.png"",""images/Red_Circle.png""]","true","[[122,249],[234,64],[17,60]]","false",""
"html-keyboard-response","162","2.1.0","372827","78592","break","1378","<p>Great job so far! Please rest for a few seconds before continuing.</p>
                 <p>Press the <strong>Z</strong> key on your keyboard to continue.</p>","z","","","","","","","","","","","","","","","","","Z"
"visual-search-circle","163","2.2.0","374987","78592","visual_search_trial","648","","j","","","","","","","","","","null","red_blue_mix","8","[""images/Red_Circle.png"",""images/Blue_Circle.png"",""images/Blue_Circle.png"",""images/Blue_Circle.png"",""images/Blue_Triangle.png"",""images/Blue_Triangle.png"",""images/Red_Circle.png"",""images/Blue_Circle.png"",""images/Blue_Circle.png""]","true","[[8,169],[64,234],[148,247],[222,203],[249,122],[219,42],[144,1],[60,17],[6,84]]","false",""
"visual-search-circle","164","2.2.0","376895","78592","visual_search_trial","401","","j","","","","","","","","","","null","red_circle","8","[""images/Red_Circle.png"",""images/Red_Circle.png"",""images/Red_Circle.png"",""images/Red_Circle.png"",""images/Red_Circle.png"",""images/Red_Circle.png"",""images/Red_Circle.png"",""images/Red_Circle.png"",""images/Red_Circle.png""]","true","[[159,245],[228,194],[249,111],[211,35],[133,0],[51,23],[3,94],[12,179],[74,239]]","false",""
"visual-search-circle","165","2.2.0","378882","78592","visual_search_trial","480","","j","","","","","","","","","","null","red_blue_mix","8","[""images/Red_Circle.png"",""images/Blue_Circle.png"",""images/Blue_Triangle.png"",""images/Blue_Triangle.png"",""images/Blue_Circle.png"",""images/Blue_Circle.png""]","true","[[203,27],[80,8],[1,105],[46,222],[169,241],[248,144]]","false",""
"visual-search-circle","166","2.2.0","380765","78592","visual_search_trial","374","","f","","","","","","","","","","null","blue_triangle","8","[""images/Red_Triangle.png"",""images/Blue_Triangle.png"",""images/Blue_Triangle.png"",""images/Blue_Triangle.png"",""images/Blue_Triangle.png"",""images/Blue_Triangle.png""]","true","[[101,2],[6,84],[30,207],[148,247],[243,165],[219,42]]","true",""
"visual-search-circle","167","2.2.0","382767","78592","visual_search_trial","493","","j","","","","","","","","","","null","red_circle","8","[""images/Red_Circle.png"",""images/Red_Circle.png"",""images/Red_Circle.png""]","true","[[78,240],[248,107],[48,26]]","false",""
"visual-search-circle","168","2.2.0","384829","78592","visual_search_trial","556","","j","","","","","","","","","","null","blue_triangle","8","[""images/Blue_Triangle.png"",""images/Blue_Triangle.png"",""images/Blue_Triangle.png"",""images/Blue_Triangle.png"",""images/Blue_Triangle.png"",""images/Blue_Triangle.png""]","true","[[17,60],[15,185],[122,249],[232,189],[234,64],[127,0]]","false",""
"visual-search-circle","169","2.2.0","386901","78592","visual_search_trial","562","","f","","","","","","","","","","null","red_circle","8","[""images/Red_Triangle.png"",""images/Red_Circle.png"",""images/Red_Circle.png"",""images/Red_Circle.png"",""images/Red_Circle.png"",""images/Red_Circle.png"",""images/Red_Circle.png"",""images/Red_Circle.png"",""images/Red_Circle.png""]","true","[[131,249],[210,216],[249,140],[229,56],[161,5],[76,9],[13,68],[3,153],[49,224]]","true",""
"visual-search-circle","170","2.2.0","388902","78592","visual_search_trial","488","","j","","","","","","","","","","null","red_blue_mix","8","[""images/Blue_Circle.png"",""images/Blue_Triangle.png"",""images/Blue_Triangle.png""]","true","[[236,68],[20,56],[118,249]]","false",""
"visual-search-circle","171","2.2.0","390912","78592","visual_search_trial","496","","f","","","","","","","","","","null","red_circle","8","[""images/Red_Triangle.png"",""images/Red_Circle.png"",""images/Red_Circle.png"",""images/Red_Circle.png"",""images/Red_Circle.png"",""images/Red_Circle.png""]","true","[[35,38],[4,159],[94,246],[214,211],[245,90],[155,3]]","true",""
"visual-search-circle","172","2.2.0","393092","78592","visual_search_trial","678","","f","","","","","","","","","","null","red_blue_mix","8","[""images/Red_Triangle.png"",""images/Blue_Circle.png"",""images/Red_Circle.png"",""images/Blue_Circle.png"",""images/Blue_Triangle.png"",""images/Blue_Circle.png""]","true","[[36,36],[4,157],[92,245],[213,213],[245,92],[157,4]]","true",""
"visual-search-circle","173","2.2.0","395043","78592","visual_search_trial","439","","f","","","","","","","","","","null","blue_triangle","8","[""images/Red_Triangle.png"",""images/Blue_Triangle.png"",""images/Blue_Triangle.png"",""images/Blue_Triangle.png"",""images/Blue_Triangle.png"",""images/Blue_Triangle.png"",""images/Blue_Triangle.png"",""images/Blue_Triangle.png"",""images/Blue_Triangle.png""]","true","[[7,167],[62,233],[146,248],[220,205],[250,125],[220,44],[146,1],[62,16],[7,82]]","true",""
"visual-search-circle","174","2.2.0","396968","78592","visual_search_trial","411","","f","","","","","","","","","","null","red_blue_mix","8","[""images/Red_Triangle.png"",""images/Blue_Triangle.png"",""images/Blue_Circle.png""]","true","[[38,214],[246,155],[90,4]]","true",""
"visual-search-circle","175","2.2.0","399062","78592","visual_search_trial","584","","j","","","","","","","","","","null","red_circle","8","[""images/Red_Circle.png"",""images/Red_Circle.png"",""images/Red_Circle.png"",""images/Red_Circle.png"",""images/Red_Circle.png"",""images/Red_Circle.png""]","true","[[183,235],[249,129],[191,18],[66,14],[0,120],[58,231]]","false",""
"visual-search-circle","176","2.2.0","400936","78592","visual_search_trial","366","","f","","","","","","","","","","null","blue_triangle","8","[""images/Red_Triangle.png"",""images/Blue_Triangle.png"",""images/Blue_Triangle.png""]","true","[[107,1],[26,201],[240,171]]","true",""
"visual-search-circle","177","2.2.0","402936","78592","visual_search_trial","489","","f","","","","","","","","","","null","red_circle","8","[""images/Red_Triangle.png"",""images/Red_Circle.png"",""images/Red_Circle.png""]","true","[[7,167],[220,205],[146,1]]","true",""
"visual-search-circle","178","2.2.0","405217","78592","visual_search_trial","770","","j","","","","","","","","","","null","blue_triangle","8","[""images/Blue_Triangle.png"",""images/Blue_Triangle.png"",""images/Blue_Triangle.png""]","true","[[171,240],[201,26],[1,107]]","false",""
"visual-search-circle","179","2.2.0","407372","78592","visual_search_trial","642","","f","","","","","","","","","","null","red_blue_mix","8","[""images/Red_Triangle.png"",""images/Red_Circle.png"",""images/Blue_Circle.png"",""images/Red_Circle.png"",""images/Red_Circle.png"",""images/Red_Circle.png"",""images/Red_Circle.png"",""images/Blue_Triangle.png"",""images/Red_Circle.png""]","true","[[90,245],[175,239],[237,179],[246,94],[198,23],[116,0],[38,35],[0,111],[21,194]]","true",""
"visual-search-circle","180","2.2.0","409445","78592","visual_search_trial","559","","j","","","","","","","","","","null","blue_triangle","8","[""images/Blue_Triangle.png"",""images/Blue_Triangle.png"",""images/Blue_Triangle.png"",""images/Blue_Triangle.png"",""images/Blue_Triangle.png"",""images/Blue_Triangle.png"",""images/Blue_Triangle.png"",""images/Blue_Triangle.png"",""images/Blue_Triangle.png""]","true","[[42,30],[1,105],[17,189],[84,243],[169,241],[234,185],[247,101],[203,27],[122,0]]","false",""
"visual-search-circle","181","2.2.0","411550","78592","visual_search_trial","588","","f","","","","","","","","","","null","blue_triangle","9","[""images/Red_Triangle.png"",""images/Blue_Triangle.png"",""images/Blue_Triangle.png""]","true","[[237,179],[116,0],[21,194]]","true",""
"visual-search-circle","182","2.2.0","413658","78592","visual_search_trial","602","","j","","","","","","","","","","null","red_blue_mix","9","[""images/Blue_Triangle.png"",""images/Red_Circle.png"",""images/Blue_Triangle.png""]","true","[[219,42],[6,84],[148,247]]","false",""
"visual-search-circle","183","2.2.0","415617","78592","visual_search_trial","450","","f","","","","","","","","","","null","blue_triangle","9","[""images/Red_Triangle.png"",""images/Blue_Triangle.png"",""images/Blue_Triangle.png"",""images/Blue_Triangle.png"",""images/Blue_Triangle.png"",""images/Blue_Triangle.png"",""images/Blue_Triangle.png"",""images/Blue_Triangle.png"",""images/Blue_Triangle.png""]","true","[[11,177],[72,238],[157,245],[227,196],[249,114],[213,36],[135,0],[53,22],[4,92]]","true",""
"visual-search-circle","184","2.2.0","417731","78592","visual_search_trial","612","","j","","","","","","","","","","null","red_blue_mix","9","[""images/Red_Triangle.png"",""images/Blue_Triangle.png"",""images/Blue_Circle.png""]","false","[[193,229],[181,13],[0,131]]","true",""
"visual-search-circle","185","2.2.0","419829","78592","visual_search_trial","585","","j","","","","","","","","","","null","red_circle","9","[""images/Red_Circle.png"",""images/Red_Circle.png"",""images/Red_Circle.png"",""images/Red_Circle.png"",""images/Red_Circle.png"",""images/Red_Circle.png""]","true","[[35,211],[155,246],[245,159],[214,38],[94,3],[4,90]]","false",""
"visual-search-circle","186","2.2.0","421847","78592","visual_search_trial","510","","f","","","","","","","","","","null","red_blue_mix","9","[""images/Red_Triangle.png"",""images/Red_Circle.png"",""images/Blue_Circle.png"",""images/Blue_Triangle.png"",""images/Red_Circle.png"",""images/Blue_Triangle.png""]","true","[[0,125],[62,233],[187,233],[250,125],[187,16],[62,16]]","true",""
"visual-search-circle","187","2.2.0","423752","78592","visual_search_trial","396","","j","","","","","","","","","","null","red_circle","9","[""images/Red_Circle.png"",""images/Red_Circle.png"",""images/Red_Circle.png"",""images/Red_Circle.png"",""images/Red_Circle.png"",""images/Red_Circle.png"",""images/Red_Circle.png"",""images/Red_Circle.png"",""images/Red_Circle.png""]","true","[[42,219],[122,249],[203,222],[247,148],[234,64],[169,8],[84,6],[17,60],[1,144]]","false",""
"visual-search-circle","188","2.2.0","425993","78592","visual_search_trial","732","","j","","","","","","","","","","null","blue_triangle","9","[""images/Blue_Triangle.png"",""images/Blue_Triangle.png"",""images/Blue_Triangle.png"",""images/Blue_Triangle.png"",""images/Blue_Triangle.png"",""images/Blue_Triangle.png""]","true","[[187,16],[62,16],[0,125],[62,233],[187,233],[250,125]]","false",""
"visual-search-circle","189","2.2.0","427873","78592","visual_search_trial","377","","j","","","","","","","","","","null","red_circle","9","[""images/Red_Triangle.png"",""images/Red_Circle.png"",""images/Red_Circle.png"",""images/Red_Circle.png"",""images/Red_Circle.png"",""images/Red_Circle.png"",""images/Red_Circle.png"",""images/Red_Circle.png"",""images/Red_Circle.png""]","false","[[92,245],[177,238],[238,177],[245,92],[196,22],[114,0],[36,36],[0,114],[22,196]]","true",""
"visual-search-circle","190","2.2.0","429856","78592","visual_search_trial","463","","f","","","","","","","","","","null","red_blue_mix","9","[""images/Red_Circle.png"",""images/Red_Circle.png"",""images/Red_Circle.png"",""images/Blue_Triangle.png"",""images/Red_Circle.png"",""images/Blue_Triangle.png"",""images/Blue_Triangle.png"",""images/Blue_Circle.png"",""images/Red_Circle.png""]","false","[[105,248],[189,232],[243,165],[241,80],[185,15],[101,2],[27,46],[0,127],[30,207]]","false",""
"visual-search-circle","191","2.2.0","431895","78592","visual_search_trial","524","","f","","","","","","","","","","null","red_circle","9","[""images/Red_Triangle.png"",""images/Red_Circle.png"",""images/Red_Circle.png"",""images/Red_Circle.png"",""images/Red_Circle.png"",""images/Red_Circle.png""]","true","[[0,133],[70,237],[194,228],[249,116],[179,12],[55,21]]","true",""
"visual-search-circle","192","2.2.0","433806","78592","visual_search_trial","402","","j","","","","","","","","","","null","red_blue_mix","9","[""images/Blue_Triangle.png"",""images/Blue_Triangle.png"",""images/Blue_Circle.png"",""images/Blue_Triangle.png"",""images/Blue_Circle.png"",""images/Blue_Triangle.png""]","true","[[114,249],[227,196],[238,72],[135,0],[22,53],[11,177]]","false",""
"visual-search-circle","193","2.2.0","436002","78592","visual_search_trial","678","","j","","","","","","","","","","null","blue_triangle","9","[""images/Blue_Triangle.png"",""images/Blue_Triangle.png"",""images/Blue_Triangle.png"",""images/Blue_Triangle.png"",""images/Blue_Triangle.png"",""images/Blue_Triangle.png"",""images/Blue_Triangle.png"",""images/Blue_Triangle.png"",""images/Blue_Triangle.png""]","true","[[177,238],[238,177],[245,92],[196,22],[114,0],[36,36],[0,114],[22,196],[92,245]]","false",""
"visual-search-circle","194","2.2.0","437943","78592","visual_search_trial","432","","f","","","","","","","","","","null","red_blue_mix","9","[""images/Red_Triangle.png"",""images/Blue_Circle.png"",""images/Blue_Circle.png"",""images/Red_Circle.png"",""images/Red_Circle.png"",""images/Red_Circle.png"",""images/Blue_Triangle.png"",""images/Blue_Triangle.png"",""images/Red_Circle.png""]","true","[[36,36],[0,114],[22,196],[92,245],[177,238],[238,177],[245,92],[196,22],[114,0]]","true",""
"visual-search-circle","195","2.2.0","439967","78592","visual_search_trial","520","","j","","","","","","","","","","null","blue_triangle","9","[""images/Blue_Triangle.png"",""images/Blue_Triangle.png"",""images/Blue_Triangle.png""]","true","[[240,76],[25,49],[109,249]]","false",""
"visual-search-circle","196","2.2.0","442031","78592","visual_search_trial","550","","j","","","","","","","","","","null","red_circle","9","[""images/Red_Circle.png"",""images/Red_Circle.png"",""images/Red_Circle.png""]","true","[[99,247],[243,86],[32,41]]","false",""
"visual-search-circle","197","2.2.0","444200","78592","visual_search_trial","658","","f","","","","","","","","","","null","blue_triangle","9","[""images/Red_Triangle.png"",""images/Blue_Triangle.png"",""images/Blue_Triangle.png"",""images/Blue_Triangle.png"",""images/Blue_Triangle.png"",""images/Blue_Triangle.png""]","true","[[175,10],[51,23],[0,138],[74,239],[198,226],[249,111]]","true",""
"visual-search-circle","198","2.2.0","446402","78592","visual_search_trial","681","","f","","","","","","","","","","null","red_circle","9","[""images/Red_Triangle.png"",""images/Red_Circle.png"",""images/Red_Circle.png""]","true","[[193,229],[181,13],[0,131]]","true",""
"html-keyboard-response","199","2.1.0","447626","78592","break","1224","<p>Great job so far! Please rest for a few seconds before continuing.</p>
                 <p>Press the <strong>I</strong> key on your keyboard to continue.</p>","i","","","","","","","","","","","","","","","","","I"
"visual-search-circle","200","2.2.0","450177","78592","visual_search_trial","1044","","j","","","","","","","","","","null","red_circle","10","[""images/Red_Circle.png"",""images/Red_Circle.png"",""images/Red_Circle.png""]","true","[[179,237],[194,21],[0,116]]","false",""
"visual-search-circle","201","2.2.0","452267","78592","visual_search_trial","586","","f","","","","","","","","","","null","blue_triangle","10","[""images/Blue_Triangle.png"",""images/Blue_Triangle.png"",""images/Blue_Triangle.png""]","false","[[232,60],[15,64],[127,249]]","false",""
"visual-search-circle","202","2.2.0","454224","78592","visual_search_trial","449","","f","","","","","","","","","","null","red_circle","10","[""images/Red_Triangle.png"",""images/Red_Circle.png"",""images/Red_Circle.png""]","true","[[0,122],[185,234],[189,17]]","true",""
"visual-search-circle","203","2.2.0","456387","78592","visual_search_trial","658","","j","","","","","","","","","","null","red_blue_mix","10","[""images/Blue_Triangle.png"",""images/Blue_Circle.png"",""images/Red_Circle.png"",""images/Red_Circle.png"",""images/Red_Circle.png"",""images/Blue_Triangle.png""]","true","[[92,4],[4,92],[36,213],[157,245],[245,157],[213,36]]","false",""
"visual-search-circle","204","2.2.0","458302","78592","visual_search_trial","409","","f","","","","","","","","","","null","blue_triangle","10","[""images/Red_Triangle.png"",""images/Blue_Triangle.png"",""images/Blue_Triangle.png""]","true","[[103,1],[29,205],[242,167]]","true",""
"visual-search-circle","205","2.2.0","460663","78592","visual_search_trial","855","","f","","","","","","","","","","null","red_circle","10","[""images/Red_Triangle.png"",""images/Red_Circle.png"",""images/Red_Circle.png"",""images/Red_Circle.png"",""images/Red_Circle.png"",""images/Red_Circle.png"",""images/Red_Circle.png"",""images/Red_Circle.png"",""images/Red_Circle.png""]","true","[[103,248],[187,233],[242,167],[242,82],[187,16],[103,1],[29,44],[0,124],[29,205]]","true",""
"visual-search-circle","206","2.2.0","462696","78592","visual_search_trial","529","","j","","","","","","","","","","null","blue_triangle","10","[""images/Blue_Triangle.png"",""images/Blue_Triangle.png"",""images/Blue_Triangle.png"",""images/Blue_Triangle.png"",""images/Blue_Triangle.png"",""images/Blue_Triangle.png"",""images/Blue_Triangle.png"",""images/Blue_Triangle.png"",""images/Blue_Triangle.png""]","true","[[229,56],[161,5],[76,9],[13,68],[3,153],[49,224],[131,249],[210,216],[249,140]]","false",""
"visual-search-circle","207","2.2.0","464823","78592","visual_search_trial","610","","j","","","","","","","","","","null","red_circle","10","[""images/Red_Circle.png"",""images/Red_Circle.png"",""images/Red_Circle.png"",""images/Red_Circle.png"",""images/Red_Circle.png"",""images/Red_Circle.png"",""images/Red_Circle.png"",""images/Red_Circle.png"",""images/Red_Circle.png""]","true","[[1,144],[42,219],[122,249],[203,222],[247,148],[234,64],[169,8],[84,6],[17,60]]","false",""
"visual-search-circle","208","2.2.0","466840","78592","visual_search_trial","504","","j","","","","","","","","","","null","red_blue_mix","10","[""images/Red_Circle.png"",""images/Red_Circle.png"",""images/Red_Circle.png""]","true","[[237,179],[116,0],[21,194]]","false",""
"visual-search-circle","209","2.2.0","468894","78592","visual_search_trial","543","","f","","","","","","","","","","null","red_circle","10","[""images/Red_Triangle.png"",""images/Red_Circle.png"",""images/Red_Circle.png"",""images/Red_Circle.png"",""images/Red_Circle.png"",""images/Red_Circle.png""]","true","[[214,38],[94,3],[4,90],[35,211],[155,246],[245,159]]","true",""
"visual-search-circle","210","2.2.0","470985","78592","visual_search_trial","586","","f","","","","","","","","","","null","red_blue_mix","10","[""images/Red_Triangle.png"",""images/Blue_Triangle.png"",""images/Blue_Circle.png"",""images/Red_Circle.png"",""images/Red_Circle.png"",""images/Red_Circle.png""]","true","[[10,74],[23,198],[138,249],[239,175],[226,51],[111,0]]","true",""
"visual-search-circle","211","2.2.0","472956","78592","visual_search_trial","463","","f","","","","","","","","","","null","blue_triangle","10","[""images/Red_Triangle.png"",""images/Blue_Triangle.png"",""images/Blue_Triangle.png"",""images/Blue_Triangle.png"",""images/Blue_Triangle.png"",""images/Blue_Triangle.png"",""images/Blue_Triangle.png"",""images/Blue_Triangle.png"",""images/Blue_Triangle.png""]","true","[[248,142],[231,58],[163,6],[78,9],[14,66],[2,150],[48,223],[129,249],[208,217]]","true",""
"visual-search-circle","212","2.2.0","475209","78592","visual_search_trial","744","","j","","","","","","","","","","null","red_blue_mix","10","[""images/Blue_Circle.png"",""images/Red_Circle.png"",""images/Blue_Triangle.png"",""images/Blue_Circle.png"",""images/Red_Circle.png"",""images/Blue_Circle.png"",""images/Red_Circle.png"",""images/Red_Circle.png"",""images/Red_Circle.png""]","true","[[56,229],[140,249],[216,210],[249,131],[224,49],[153,3],[68,13],[9,76],[5,161]]","false",""
"visual-search-circle","213","2.2.0","477157","78592","visual_search_trial","446","","j","","","","","","","","","","null","blue_triangle","10","[""images/Blue_Triangle.png"",""images/Blue_Triangle.png"",""images/Blue_Triangle.png"",""images/Blue_Triangle.png"",""images/Blue_Triangle.png"",""images/Blue_Triangle.png""]","true","[[125,250],[233,187],[233,62],[125,0],[16,62],[16,187]]","false",""
"visual-search-circle","214","2.2.0","479096","78592","visual_search_trial","432","","f","","","","","","","","","","null","red_blue_mix","10","[""images/Red_Triangle.png"",""images/Blue_Circle.png"",""images/Blue_Circle.png""]","true","[[56,20],[68,236],[249,118]]","true",""
"visual-search-circle","215","2.2.0","481134","78592","visual_search_trial","531","","j","","","","","","","","","","null","red_circle","10","[""images/Red_Circle.png"",""images/Red_Circle.png"",""images/Red_Circle.png"",""images/Red_Circle.png"",""images/Red_Circle.png"",""images/Red_Circle.png""]","true","[[41,217],[163,243],[247,150],[208,32],[86,6],[2,99]]","false",""
"visual-search-circle","216","2.2.0","483300","78592","visual_search_trial","648","","f","","","","","","","","","","null","red_blue_mix","10","[""images/Red_Triangle.png"",""images/Red_Circle.png"",""images/Blue_Triangle.png"",""images/Blue_Circle.png"",""images/Blue_Circle.png"",""images/Blue_Circle.png"",""images/Red_Circle.png"",""images/Blue_Triangle.png"",""images/Red_Circle.png""]","true","[[4,90],[10,175],[70,237],[155,246],[226,198],[249,116],[214,38],[138,0],[55,21]]","true",""
"visual-search-circle","217","2.2.0","485302","78592","visual_search_trial","494","","f","","","","","","","","","","null","blue_triangle","10","[""images/Red_Triangle.png"",""images/Blue_Triangle.png"",""images/Blue_Triangle.png"",""images/Blue_Triangle.png"",""images/Blue_Triangle.png"",""images/Blue_Triangle.png""]","true","[[3,155],[90,245],[211,214],[246,94],[159,4],[38,35]]","true",""
"visual-search-circle","218","2.2.0","487387","78592","visual_search_trial","578","","j","","","","","","","","","","null","red_circle","11","[""images/Red_Circle.png"",""images/Red_Circle.png"",""images/Red_Circle.png"",""images/Red_Circle.png"",""images/Red_Circle.png"",""images/Red_Circle.png"",""images/Red_Circle.png"",""images/Red_Circle.png"",""images/Red_Circle.png""]","true","[[211,35],[133,0],[51,23],[3,94],[12,179],[74,239],[159,245],[228,194],[249,111]]","false",""
"visual-search-circle","219","2.2.0","489427","78592","visual_search_trial","527","","f","","","","","","","","","","null","blue_triangle","11","[""images/Red_Triangle.png"",""images/Blue_Triangle.png"",""images/Blue_Triangle.png""]","true","[[249,138],[74,10],[51,226]]","true",""
"visual-search-circle","220","2.2.0","491326","78592","visual_search_trial","394","","f","","","","","","","","","","null","red_blue_mix","11","[""images/Red_Triangle.png"",""images/Red_Circle.png"",""images/Blue_Triangle.png"",""images/Blue_Triangle.png"",""images/Blue_Triangle.png"",""images/Blue_Triangle.png""]","true","[[78,9],[1,107],[48,223],[171,240],[248,142],[201,26]]","true",""
"visual-search-circle","221","2.2.0","493193","78592","visual_search_trial","354","","f","","","","","","","","","","null","blue_triangle","11","[""images/Red_Triangle.png"",""images/Blue_Triangle.png"",""images/Blue_Triangle.png"",""images/Blue_Triangle.png"",""images/Blue_Triangle.png"",""images/Blue_Triangle.png"",""images/Blue_Triangle.png"",""images/Blue_Triangle.png"",""images/Blue_Triangle.png""]","true","[[148,2],[64,15],[8,80],[6,165],[60,232],[144,248],[219,207],[249,127],[222,46]]","true",""
"visual-search-circle","222","2.2.0","495053","78592","visual_search_trial","356","","f","","","","","","","","","","null","red_circle","11","[""images/Red_Triangle.png"",""images/Red_Circle.png"",""images/Red_Circle.png"",""images/Red_Circle.png"",""images/Red_Circle.png"",""images/Red_Circle.png"",""images/Red_Circle.png"",""images/Red_Circle.png"",""images/Red_Circle.png""]","true","[[15,64],[2,148],[46,222],[127,249],[207,219],[248,144],[232,60],[165,6],[80,8]]","true",""
"visual-search-circle","223","2.2.0","497093","78592","visual_search_trial","521","","f","","","","","","","","","","null","red_blue_mix","11","[""images/Red_Triangle.png"",""images/Red_Circle.png"",""images/Blue_Triangle.png"",""images/Red_Circle.png"",""images/Red_Circle.png"",""images/Red_Circle.png"",""images/Blue_Triangle.png"",""images/Blue_Circle.png"",""images/Blue_Triangle.png""]","true","[[26,201],[99,247],[183,235],[240,171],[243,86],[191,18],[107,1],[32,41],[0,120]]","true",""
"visual-search-circle","224","2.2.0","499146","78592","visual_search_trial","543","","j","","","","","","","","","","null","blue_triangle","11","[""images/Blue_Triangle.png"",""images/Blue_Triangle.png"",""images/Blue_Triangle.png""]","true","[[150,247],[217,41],[6,86]]","false",""
"visual-search-circle","225","2.2.0","501185","78592","visual_search_trial","534","","j","","","","","","","","","","null","red_blue_mix","11","[""images/Blue_Triangle.png"",""images/Blue_Triangle.png"",""images/Red_Circle.png""]","true","[[42,219],[247,148],[84,6]]","false",""
"visual-search-circle","226","2.2.0","503100","78592","visual_search_trial","404","","j","","","","","","","","","","null","blue_triangle","11","[""images/Red_Triangle.png"",""images/Blue_Triangle.png"",""images/Blue_Triangle.png"",""images/Blue_Triangle.png"",""images/Blue_Triangle.png"",""images/Blue_Triangle.png""]","false","[[229,193],[236,68],[131,0],[20,56],[13,181],[118,249]]","true",""
"visual-search-circle","227","2.2.0","505413","78592","visual_search_trial","809","","j","","","","","","","","","","null","red_blue_mix","11","[""images/Red_Circle.png"",""images/Blue_Triangle.png"",""images/Red_Circle.png"",""images/Blue_Triangle.png"",""images/Red_Circle.png"",""images/Red_Circle.png"",""images/Blue_Triangle.png"",""images/Blue_Circle.png"",""images/Red_Circle.png""]","true","[[155,246],[226,198],[249,116],[214,38],[138,0],[55,21],[4,90],[10,175],[70,237]]","false",""
"visual-search-circle","228","2.2.0","507546","78592","visual_search_trial","628","","f","","","","","","","","","","null","red_circle","11","[""images/Red_Triangle.png"",""images/Red_Circle.png"",""images/Red_Circle.png"",""images/Red_Circle.png"",""images/Red_Circle.png"",""images/Red_Circle.png""]","true","[[249,129],[191,18],[66,14],[0,120],[58,231],[183,235]]","true",""
"visual-search-circle","229","2.2.0","509795","78592","visual_search_trial","740","","f","","","","","","","","","","null","red_blue_mix","11","[""images/Red_Triangle.png"",""images/Blue_Triangle.png"",""images/Blue_Circle.png""]","true","[[9,76],[140,249],[224,49]]","true",""
"visual-search-circle","230","2.2.0","511890","78592","visual_search_trial","579","","j","","","","","","","","","","null","red_circle","11","[""images/Red_Circle.png"",""images/Red_Circle.png"",""images/Red_Circle.png"",""images/Red_Circle.png"",""images/Red_Circle.png"",""images/Red_Circle.png""]","true","[[146,248],[242,167],[220,44],[103,1],[7,82],[29,205]]","false",""
"visual-search-circle","231","2.2.0","514015","78592","visual_search_trial","616","","j","","","","","","","","","","null","blue_triangle","11","[""images/Blue_Triangle.png"",""images/Blue_Triangle.png"",""images/Blue_Triangle.png"",""images/Blue_Triangle.png"",""images/Blue_Triangle.png"",""images/Blue_Triangle.png""]","true","[[194,228],[249,116],[179,12],[55,21],[0,133],[70,237]]","false",""
"visual-search-circle","232","2.2.0","515991","78592","visual_search_trial","466","","f","","","","","","","","","","null","red_circle","11","[""images/Red_Triangle.png"",""images/Red_Circle.png"",""images/Red_Circle.png""]","true","[[9,76],[140,249],[224,49]]","true",""
"visual-search-circle","233","2.2.0","517909","78592","visual_search_trial","414","","f","","","","","","","","","","null","red_blue_mix","11","[""images/Blue_Circle.png"",""images/Blue_Triangle.png"",""images/Blue_Triangle.png"",""images/Blue_Circle.png"",""images/Red_Circle.png"",""images/Blue_Triangle.png""]","false","[[3,155],[90,245],[211,214],[246,94],[159,4],[38,35]]","false",""
"visual-search-circle","234","2.2.0","519942","78592","visual_search_trial","525","","j","","","","","","","","","","null","red_circle","11","[""images/Red_Circle.png"",""images/Red_Circle.png"",""images/Red_Circle.png""]","true","[[64,15],[60,232],[249,127]]","false",""
