"trial_type","trial_index","plugin_version","time_elapsed","sona_id","phase","rt","stimulus","response","consented","required_key","view_history","question_order","success","timeout","failed_images","failed_audio","failed_video","set_size","distractor_type","block","stimuli_list","correct","locations","target_present","break_key"
"pavlovia","0","null","1246","79186","","","","","","","","","","","","","","","","","","","","",""
"html-button-response","1","2.1.0","13618","79186","informed_consent","12369","
    <div style=""max-width: 900px; margin: 0 auto; padding: 20px; text-align: left; line-height: 1.6;"">
      <h1 style=""text-align: center; color: #333; font-size: 24px; margin-bottom: 10px; font-weight: bold;"">
        INFORMED CONSENT INFORMATION
      </h1>
      <h2 style=""text-align: center; color: #333; font-size: 22px; margin-bottom: 20px; font-weight: bold;"">
        FOR RESEARCH PARTICIPATION
      </h2>
      
      <p style=""margin-bottom: 10px;""><strong>Study Title:</strong> The Effects of Mindfulness and Attention on Life Satisfaction and Memory</p>
      <p style=""margin-bottom: 10px;""><strong>Principal Investigator:</strong> Ella Bremmer</p>
      <p style=""margin-bottom: 10px;""><strong>Co-Principal Investigator:</strong> Dr. Gregory Cox</p>
      <p style=""margin-bottom: 20px;""><strong>IRB Study Number:</strong></p>

      <p style=""margin-bottom: 15px;"">I am a student at the University at Albany, in the Department of Psychology. I am planning to conduct a research study, which I invite you to take part in.</p>
      
      <p style=""margin-bottom: 25px;"">This form has important information about the reasons for doing this study, what we will ask you to do, and the way we would like to use the information we collect about you.</p>

      <h3 style=""color: #333; font-size: 18px; margin-top: 25px; margin-bottom: 10px; font-weight: bold;"">
        Why are you doing this study?
      </h3>
      <p style=""margin-bottom: 15px;"">You are being asked to participate in a research study that aims to understand if there is a relationship between mindfulness, the ability to pay attention, and life satisfaction.</p>
      
      <p style=""margin-bottom: 25px;"">The purpose of this study is to investigate if having better control over one's attention influences overall life satisfaction. Your participation will help us better understand if mindfulness and attention do have a significant effect on life satisfaction (i.e., how people feel about their lives overall). Then you will be asked to perform a conjunction visual search task to test your capacity to direct your attention over a sustained period.</p>

      <h3 style=""color: #333; font-size: 18px; margin-top: 25px; margin-bottom: 10px; font-weight: bold;"">
        Why am I eligible to participate in this study?
      </h3>
      <p style=""margin-bottom: 25px;"">You are eligible to participate because you are a student at UAlbany, are at least 18 years old, and are proficient in English.</p>

      <h3 style=""color: #333; font-size: 18px; margin-top: 25px; margin-bottom: 10px; font-weight: bold;"">
        What will I do if I choose to be in this study?
      </h3>
      <p style=""margin-bottom: 10px;"">If you choose to take part in our study, you will do the following:</p>
      <p style=""margin-bottom: 8px; margin-left: 20px;"">1. Read and agree to the informed consent.</p>
      <p style=""margin-bottom: 8px; margin-left: 40px;"">a. If you choose not to agree to the informed consent, you will be taken back to the SONA site.</p>
      <p style=""margin-bottom: 8px; margin-left: 20px;"">2. Complete a demographic questionnaire that asks about your age, English proficiency, gender, and race.</p>
      <p style=""margin-bottom: 8px; margin-left: 20px;"">3. Read instructions for the visual search task, which asks you to indicate if a target (a red triangle) is present among various other colored shapes. You should press the ""F"" key if a red triangle is present, or the ""J"" key if the target is absent.</p>
      <p style=""margin-bottom: 8px; margin-left: 20px;"">4. You will be asked to respond to 270 visual search trials, whith the opportunity to take short breaks as you go</p>
      <p style=""margin-bottom: 8px; margin-left: 20px;"">5. You will complete the Mindfulness Attention Awareness Scale (MAAS), the Satisfaction With Life Scale (SWLS), and the Big Five Inventory.</p>
      <p style=""margin-bottom: 25px; margin-left: 20px;"">6.	After all questionnaires are completed, participants will be thanked for their time and will be provided the study debriefing. Following the debriefing, you will be sent back to the SONA research site.</p>

      <h3 style=""color: #333; font-size: 18px; margin-top: 25px; margin-bottom: 10px; font-weight: bold;"">
        For how long will I participate?
      </h3>
      <p style=""margin-bottom: 25px;"">This study is a single online session that you can complete on a computer. The study can be completed in less than 30 minutes but could require as long as 45 minutes to complete.</p>

      <h3 style=""color: #333; font-size: 18px; margin-top: 25px; margin-bottom: 10px; font-weight: bold;"">
        Where will I need to go to participate?
      </h3>
      <p style=""margin-bottom: 25px;"">All study procedures will take place online and can be completed wherever you have internet connection.</p>

      <h3 style=""color: #333; font-size: 18px; margin-top: 25px; margin-bottom: 10px; font-weight: bold;"">
        Are there any costs I should be aware of?
      </h3>
      <p style=""margin-bottom: 25px;"">Participation is not expected to incur cost to participants. Free internet access is available anywhere on campus and in the university library.</p>

      <h3 style=""color: #333; font-size: 18px; margin-top: 25px; margin-bottom: 10px; font-weight: bold;"">
        What are the possible risks or discomforts?
      </h3>
      <p style=""margin-bottom: 15px;"">As with all research, there is a chance that confidentiality of the information we collect from you could be breached – we will take steps to minimize this risk, as discussed in more detail below.</p>
      
      <p style=""margin-bottom: 25px;"">The risks associated with participating in this study are minimal; however, you may experience mild discomfort when reflecting on your mindfulness or life satisfaction when answering questionnaires in the study. To help minimize this, you can withdraw from the study at any time without any consequences. The study will take place online, and you will have the opportunity to take breaks while completing the survey to reduce the risk of eye strain associated with the use of electronic devices.</p>

      <h3 style=""color: #333; font-size: 18px; margin-top: 25px; margin-bottom: 10px; font-weight: bold;"">
        What are the possible benefits for me or others?
      </h3>
      <p style=""margin-bottom: 25px;"">While there are no direct personal benefits to participants of this study, you may find value in reflecting on your mindfulness, attention, and its impact on life satisfaction by completing this survey. The data you contribute may help advance society's understanding of how mindfulness and attention relate to overall well-being, potentially informing future programs or interventions aimed at improving student mental health, attention, and life satisfaction.</p>

      <h3 style=""color: #333; font-size: 18px; margin-top: 25px; margin-bottom: 10px; font-weight: bold;"">
        Will I receive compensation for my participation?
      </h3>
      <p style=""margin-bottom: 25px;"">SONA partial class credit will be awarded via the Psychology Department SONA research pool after you complete the survey in its entirety. Participants who withdraw before completing the survey will not receive partial credit. You will not receive monetary compensation for your participation in this study.</p>

      <h3 style=""color: #333; font-size: 18px; margin-top: 25px; margin-bottom: 10px; font-weight: bold;"">
        How will you protect the information you collect about me, and how will that information be shared?
      </h3>
      <p style=""margin-bottom: 15px;"">Results of this study may be used in publications and presentations. Your data will be handled as confidentially as possible, and no identifiable information will be collected to link your data back to you. If results of this study are published or presented, only de-identified summaries of data will be used.</p>
      
      <p style=""margin-bottom: 25px;"">To minimize the risks to confidentiality, all data will be collected anonymously via Pavlovia.org which uses encryption to protect information (https://pavlovia.org/docs/home/ethics). Only the student researcher (Ella Bremmer), mentor (Pierce Johnson), and faculty advisor (Gregory Cox) will have password-protected access to the data. Data will be stored on secure, university approved computers.</p>

      <h3 style=""color: #333; font-size: 18px; margin-top: 25px; margin-bottom: 10px; font-weight: bold;"">
        Will my data be used in future research?
      </h3>
      <p style=""margin-bottom: 25px;"">No personal identifiers will be collected in the data you provide us. Data will not be used in future research, and will be deleted after the required retention period.</p>

      <h3 style=""color: #333; font-size: 18px; margin-top: 25px; margin-bottom: 10px; font-weight: bold;"">
        What are my rights as a research participant?
      </h3>
      <p style=""margin-bottom: 15px;"">Participation in this study is voluntary. You do not have to answer any question you do not want to answer. If at any time and for any reason, you would prefer not to participate in this study, please feel free not to. If at any time you would like to stop participating, you are welcome to stop. You can take a break or stop altogether. You may withdraw from this study at any time, and you will not be penalized in any way for deciding to stop participation.</p>
      
      <p style=""margin-bottom: 25px;"">If you decide to withdraw from this study, any information collected from you before withdrawing will not be used, and your data will be deleted.</p>

      <h3 style=""color: #333; font-size: 18px; margin-top: 25px; margin-bottom: 10px; font-weight: bold;"">
        What if I am a University at Albany student or employee?
      </h3>
      <p style=""margin-bottom: 25px;"">You may choose not to participate or to stop participating in this research at any time. This will not affect your class standing, grades, employment, or any other aspects of your relationship with the University at Albany.</p>

      <h3 style=""color: #333; font-size: 18px; margin-top: 25px; margin-bottom: 10px; font-weight: bold;"">
        Who can I contact if I have questions or concerns about this research study?
      </h3>
      <p style=""margin-bottom: 15px;"">If you have questions, please feel free to stop and email the investigator, Ella Bremmer (ebremmer@albany.edu) or advisors, Pierce Johnson (pjohnson4@albany.edu) and Dr. Greg Cox (gecox@albany.edu). If you have questions later, you may also contact the researchers.</p>
      
      <p style=""margin-bottom: 10px;"">If you have any questions about your rights as a participant in this research, you can contact the following office at the University at Albany:</p>
      
      <p style=""margin-bottom: 5px; margin-left: 20px;"">Institutional Review Board</p>
      <p style=""margin-bottom: 5px; margin-left: 20px;"">University at Albany</p>
      <p style=""margin-bottom: 5px; margin-left: 20px;"">Office of Regulatory and Research Compliance</p>
      <p style=""margin-bottom: 5px; margin-left: 20px;"">1400 Washington Ave, Biology 227</p>
      <p style=""margin-bottom: 5px; margin-left: 20px;"">Albany, NY 12222</p>
      <p style=""margin-bottom: 5px; margin-left: 20px;"">Phone: 1-866-857-5459</p>
      <p style=""margin-bottom: 25px; margin-left: 20px;"">Email: rco@albany.edu</p>

      <h3 style=""color: #333; font-size: 18px; margin-top: 30px; margin-bottom: 10px; font-weight: bold;"">
        Consent
      </h3>
      <p style=""margin-bottom: 20px;"">I have read this form and the research study has been explained to me. I have been given the opportunity to ask questions and my questions have been answered. If I have additional questions, I have been told whom to contact. I agree to participate in the research study described above. I understand that I have the opportunity to download and save a copy of this form for my records.</p>

      <div style=""background-color: #f9f9f9; border: 2px solid #4CAF50; border-radius: 5px; padding: 20px; margin-top: 20px; margin-bottom: 20px;"">
        <p style=""margin-bottom: 15px; font-weight: bold;"">To save a copy of this consent form for your records, press Ctrl+P (Windows/Linux) or Cmd+P (Mac) and select ""Save as PDF"".</p>
        <p style=""margin-bottom: 0; font-weight: bold;"">By clicking ""I Agree"" below, I confirm that I agree to participate in the research study described above, and that doing so serves as my written signature consenting to take part in the study.</p>
      </div>
    </div>
  ","0","true","","","","","","","","","","","","","","","",""
"instructions","3","2.1.0","17200","79186","intro_instructions","3580","","","","f","[{""page_index"":0,""viewing_time"":3580}]","","","","","","","","","","","","","",""
"html-keyboard-response","4","2.1.0","19203","79186","intermediate_slide_demo","null","<p style=""font-size:4vw"">Demographic Questionnaire</p>","null","","","","","","","","","","","","","","","","",""
"survey-multi-choice","5","2.1.0","70167","79186","demographics_english","50964","","{""english"":""Strongly agree""}","","","","[0]","","","","","","","","","","","","",""
"survey-text","7","2.1.0","73720","79186","demographics_age","3546","","{""age"":""18""}","","","","","","","","","","","","","","","","",""
"survey-multi-select","9","2.1.0","77207","79186","demographics_gender","3486","","{""gender"":[""Woman""]}","","","","[0]","","","","","","","","","","","","",""
"survey-multi-choice","11","2.1.0","80106","79186","demographics_race","2898","","{""race"":""Hispanic or Latino""}","","","","[0]","","","","","","","","","","","","",""
"html-keyboard-response","12","2.1.0","82109","79186","intermediate_slide_VS","null","<p style=""font-size:4vw"">Visual Search Task</p>","null","","","","","","","","","","","","","","","","",""
"preload","13","2.1.0","82454","79186","image_preload","","","","","","","","true","false","[]","[]","[]","","","","","","","",""
"html-button-response","14","2.1.0","101051","79186","vs_instructions","18595","<p>On the following screens, you will see a series of colored shapes (triangles, squares, and circles) appear.</p>
    <p>Please Press 'F' if there <strong>is</strong> a red triangle among the shapes you see.</p>
    <p>Press 'J' if there is <strong>not</strong> a red triangle among the shapes you see.</p>","0","","","","","","","","","","","","","","","","",""
"visual-search-circle","15","2.2.0","104122","79186","visual_search_trial","1565","","f","","","","","","","","","","null","red_blue_mix","0","[""images/Blue_Circle.png"",""images/Blue_Triangle.png"",""images/Blue_Triangle.png"",""images/Red_Circle.png"",""images/Blue_Circle.png"",""images/Blue_Triangle.png"",""images/Red_Circle.png"",""images/Blue_Circle.png"",""images/Blue_Triangle.png""]","false","[[238,72],[177,11],[92,4],[22,53],[0,135],[36,213],[114,249],[196,227],[245,157]]","false",""
"visual-search-circle","16","2.2.0","106672","79186","visual_search_trial","1046","","f","","","","","","","","","","null","red_circle","0","[""images/Red_Triangle.png"",""images/Red_Circle.png"",""images/Red_Circle.png"",""images/Red_Circle.png"",""images/Red_Circle.png"",""images/Red_Circle.png"",""images/Red_Circle.png"",""images/Red_Circle.png"",""images/Red_Circle.png""]","true","[[248,107],[208,32],[129,0],[48,26],[2,99],[14,183],[78,240],[163,243],[231,191]]","true",""
"visual-search-circle","17","2.2.0","108807","79186","visual_search_trial","631","","j","","","","","","","","","","null","blue_triangle","0","[""images/Blue_Triangle.png"",""images/Blue_Triangle.png"",""images/Blue_Triangle.png""]","true","[[49,224],[249,140],[76,9]]","false",""
"visual-search-circle","18","2.2.0","110898","79186","visual_search_trial","587","","f","","","","","","","","","","null","red_blue_mix","0","[""images/Red_Triangle.png"",""images/Blue_Circle.png"",""images/Red_Circle.png""]","true","[[159,245],[211,35],[3,94]]","true",""
"visual-search-circle","19","2.2.0","113050","79186","visual_search_trial","647","","f","","","","","","","","","","null","red_circle","0","[""images/Red_Circle.png"",""images/Red_Circle.png"",""images/Red_Circle.png"",""images/Red_Circle.png"",""images/Red_Circle.png"",""images/Red_Circle.png""]","false","[[60,17],[0,127],[64,234],[189,232],[249,122],[185,15]]","false",""
"visual-search-circle","20","2.2.0","115251","79186","visual_search_trial","697","","j","","","","","","","","","","null","blue_triangle","0","[""images/Blue_Triangle.png"",""images/Blue_Triangle.png"",""images/Blue_Triangle.png"",""images/Blue_Triangle.png"",""images/Blue_Triangle.png"",""images/Blue_Triangle.png"",""images/Blue_Triangle.png"",""images/Blue_Triangle.png"",""images/Blue_Triangle.png""]","true","[[248,146],[233,62],[167,7],[82,7],[16,62],[1,146],[44,220],[124,250],[205,220]]","false",""
"visual-search-circle","21","2.2.0","117267","79186","visual_search_trial","511","","f","","","","","","","","","","null","red_circle","0","[""images/Red_Circle.png"",""images/Red_Circle.png"",""images/Red_Circle.png"",""images/Red_Circle.png"",""images/Red_Circle.png"",""images/Red_Circle.png"",""images/Red_Circle.png"",""images/Red_Circle.png"",""images/Red_Circle.png""]","false","[[3,155],[51,226],[133,249],[211,214],[249,138],[228,55],[159,4],[74,10],[12,70]]","false",""
"visual-search-circle","22","2.2.0","119430","79186","visual_search_trial","660","","j","","","","","","","","","","null","blue_triangle","0","[""images/Red_Triangle.png"",""images/Blue_Triangle.png"",""images/Blue_Triangle.png""]","false","[[23,51],[111,249],[239,74]]","true",""
"visual-search-circle","23","2.2.0","121482","79186","visual_search_trial","549","","f","","","","","","","","","","null","red_blue_mix","0","[""images/Red_Triangle.png"",""images/Blue_Circle.png"",""images/Blue_Circle.png"",""images/Red_Circle.png"",""images/Blue_Circle.png"",""images/Blue_Triangle.png""]","true","[[140,0],[25,49],[9,173],[109,249],[224,200],[240,76]]","true",""
"visual-search-circle","24","2.2.0","123617","79186","visual_search_trial","632","","j","","","","","","","","","","null","red_circle","0","[""images/Red_Circle.png"",""images/Red_Circle.png"",""images/Red_Circle.png""]","true","[[0,122],[185,234],[189,17]]","false",""
"visual-search-circle","25","2.2.0","125810","79186","visual_search_trial","689","","j","","","","","","","","","","null","blue_triangle","0","[""images/Blue_Triangle.png"",""images/Blue_Triangle.png"",""images/Blue_Triangle.png"",""images/Blue_Triangle.png"",""images/Blue_Triangle.png"",""images/Blue_Triangle.png""]","true","[[243,84],[148,2],[30,42],[6,165],[101,247],[219,207]]","false",""
"visual-search-circle","26","2.2.0","128208","79186","visual_search_trial","895","","f","","","","","","","","","","null","red_circle","0","[""images/Red_Triangle.png"",""images/Red_Circle.png"",""images/Red_Circle.png""]","true","[[133,249],[228,55],[12,70]]","true",""
"visual-search-circle","27","2.2.0","130367","79186","visual_search_trial","655","","f","","","","","","","","","","null","red_blue_mix","0","[""images/Red_Triangle.png"",""images/Red_Circle.png"",""images/Blue_Triangle.png"",""images/Blue_Circle.png"",""images/Red_Circle.png"",""images/Red_Circle.png"",""images/Red_Circle.png"",""images/Red_Circle.png"",""images/Red_Circle.png""]","true","[[0,131],[33,210],[109,249],[193,229],[244,161],[240,76],[181,13],[96,3],[25,49]]","true",""
"visual-search-circle","28","2.2.0","134559","79186","visual_search_trial","2688","","f","","","","","","","","","","null","red_circle","0","[""images/Red_Triangle.png"",""images/Red_Circle.png"",""images/Red_Circle.png"",""images/Red_Circle.png"",""images/Red_Circle.png"",""images/Red_Circle.png""]","true","[[70,12],[0,116],[55,228],[179,237],[249,133],[194,21]]","true",""
"visual-search-circle","29","2.2.0","137679","79186","visual_search_trial","1616","","f","","","","","","","","","","null","blue_triangle","0","[""images/Red_Triangle.png"",""images/Blue_Triangle.png"",""images/Blue_Triangle.png"",""images/Blue_Triangle.png"",""images/Blue_Triangle.png"",""images/Blue_Triangle.png"",""images/Blue_Triangle.png"",""images/Blue_Triangle.png"",""images/Blue_Triangle.png""]","true","[[200,25],[118,0],[39,33],[0,109],[20,193],[88,244],[173,240],[236,181],[246,96]]","true",""
"visual-search-circle","30","2.2.0","139806","79186","visual_search_trial","625","","f","","","","","","","","","","null","red_blue_mix","0","[""images/Red_Circle.png"",""images/Blue_Triangle.png"",""images/Red_Circle.png""]","false","[[181,13],[0,131],[193,229]]","false",""
"visual-search-circle","31","2.2.0","141913","79186","visual_search_trial","603","","f","","","","","","","","","","null","blue_triangle","0","[""images/Red_Triangle.png"",""images/Blue_Triangle.png"",""images/Blue_Triangle.png"",""images/Blue_Triangle.png"",""images/Blue_Triangle.png"",""images/Blue_Triangle.png""]","true","[[246,94],[159,4],[38,35],[3,155],[90,245],[211,214]]","true",""
"visual-search-circle","32","2.2.0","144259","79186","visual_search_trial","842","","f","","","","","","","","","","null","red_blue_mix","0","[""images/Blue_Triangle.png"",""images/Blue_Triangle.png"",""images/Red_Circle.png"",""images/Red_Circle.png"",""images/Red_Circle.png"",""images/Blue_Circle.png""]","false","[[6,84],[30,207],[148,247],[243,165],[219,42],[101,2]]","false",""
"visual-search-circle","33","2.2.0","146605","79186","visual_search_trial","844","","f","","","","","","","","","","null","red_blue_mix","1","[""images/Red_Triangle.png"",""images/Blue_Triangle.png"",""images/Blue_Circle.png""]","true","[[107,248],[240,78],[26,48]]","true",""
"visual-search-circle","34","2.2.0","148520","79186","visual_search_trial","412","","f","","","","","","","","","","null","red_circle","1","[""images/Red_Triangle.png"",""images/Red_Circle.png"",""images/Red_Circle.png""]","true","[[220,44],[7,82],[146,248]]","true",""
"visual-search-circle","35","2.2.0","150731","79186","visual_search_trial","706","","f","","","","","","","","","","null","red_blue_mix","1","[""images/Red_Circle.png"",""images/Blue_Circle.png"",""images/Red_Circle.png"",""images/Blue_Triangle.png"",""images/Red_Circle.png"",""images/Blue_Triangle.png"",""images/Red_Circle.png"",""images/Blue_Triangle.png"",""images/Red_Circle.png""]","false","[[120,249],[201,223],[247,150],[235,66],[171,9],[86,6],[18,58],[1,142],[41,217]]","false",""
"visual-search-circle","36","2.2.0","152724","79186","visual_search_trial","490","","j","","","","","","","","","","null","blue_triangle","1","[""images/Blue_Triangle.png"",""images/Blue_Triangle.png"",""images/Blue_Triangle.png""]","true","[[96,246],[244,88],[33,39]]","false",""
"visual-search-circle","37","2.2.0","154709","79186","visual_search_trial","481","","f","","","","","","","","","","null","red_circle","1","[""images/Red_Circle.png"",""images/Red_Circle.png"",""images/Red_Circle.png"",""images/Red_Circle.png"",""images/Red_Circle.png"",""images/Red_Circle.png""]","false","[[53,22],[0,135],[72,238],[196,227],[249,114],[177,11]]","false",""
"visual-search-circle","38","2.2.0","156814","79186","visual_search_trial","600","","f","","","","","","","","","","null","blue_triangle","1","[""images/Red_Triangle.png"",""images/Blue_Triangle.png"",""images/Blue_Triangle.png"",""images/Blue_Triangle.png"",""images/Blue_Triangle.png"",""images/Blue_Triangle.png"",""images/Blue_Triangle.png"",""images/Blue_Triangle.png"",""images/Blue_Triangle.png""]","true","[[236,68],[173,9],[88,5],[20,56],[0,140],[39,216],[118,249],[200,224],[246,153]]","true",""
"visual-search-circle","39","2.2.0","158816","79186","visual_search_trial","499","","f","","","","","","","","","","null","red_blue_mix","1","[""images/Blue_Circle.png"",""images/Red_Circle.png"",""images/Red_Circle.png""]","false","[[242,167],[103,1],[29,205]]","false",""
"visual-search-circle","40","2.2.0","160897","79186","visual_search_trial","577","","f","","","","","","","","","","null","red_circle","1","[""images/Red_Triangle.png"",""images/Red_Circle.png"",""images/Red_Circle.png"",""images/Red_Circle.png"",""images/Red_Circle.png"",""images/Red_Circle.png"",""images/Red_Circle.png"",""images/Red_Circle.png"",""images/Red_Circle.png""]","true","[[210,216],[249,140],[229,56],[161,5],[76,9],[13,68],[3,153],[49,224],[131,249]]","true",""
"visual-search-circle","41","2.2.0","163076","79186","visual_search_trial","675","","j","","","","","","","","","","null","red_blue_mix","1","[""images/Red_Circle.png"",""images/Red_Circle.png"",""images/Blue_Circle.png"",""images/Red_Circle.png"",""images/Blue_Circle.png"",""images/Red_Circle.png""]","true","[[118,249],[229,193],[236,68],[131,0],[20,56],[13,181]]","false",""
"visual-search-circle","42","2.2.0","165534","79186","visual_search_trial","954","","f","","","","","","","","","","null","red_circle","1","[""images/Red_Triangle.png"",""images/Red_Circle.png"",""images/Red_Circle.png"",""images/Red_Circle.png"",""images/Red_Circle.png"",""images/Red_Circle.png""]","true","[[6,86],[32,208],[150,247],[243,163],[217,41],[99,2]]","true",""
"visual-search-circle","43","2.2.0","167642","79186","visual_search_trial","604","","j","","","","","","","","","","null","blue_triangle","1","[""images/Blue_Triangle.png"",""images/Blue_Triangle.png"",""images/Blue_Triangle.png"",""images/Blue_Triangle.png"",""images/Blue_Triangle.png"",""images/Blue_Triangle.png""]","true","[[58,231],[183,235],[249,129],[191,18],[66,14],[0,120]]","false",""
"visual-search-circle","44","2.2.0","169616","79186","visual_search_trial","470","","f","","","","","","","","","","null","red_circle","1","[""images/Red_Circle.png"",""images/Red_Circle.png"",""images/Red_Circle.png"",""images/Red_Circle.png"",""images/Red_Circle.png"",""images/Red_Circle.png"",""images/Red_Circle.png"",""images/Red_Circle.png"",""images/Red_Circle.png""]","false","[[26,201],[99,247],[183,235],[240,171],[243,86],[191,18],[107,1],[32,41],[0,120]]","false",""
"visual-search-circle","45","2.2.0","171655","79186","visual_search_trial","535","","f","","","","","","","","","","null","red_blue_mix","1","[""images/Red_Triangle.png"",""images/Red_Circle.png"",""images/Red_Circle.png"",""images/Red_Circle.png"",""images/Red_Circle.png"",""images/Blue_Triangle.png"",""images/Red_Circle.png"",""images/Blue_Triangle.png"",""images/Blue_Triangle.png""]","true","[[177,238],[238,177],[245,92],[196,22],[114,0],[36,36],[0,114],[22,196],[92,245]]","true",""
"visual-search-circle","46","2.2.0","173555","79186","visual_search_trial","396","","f","","","","","","","","","","null","blue_triangle","1","[""images/Red_Triangle.png"",""images/Blue_Triangle.png"",""images/Blue_Triangle.png""]","true","[[1,105],[169,241],[203,27]]","true",""
"visual-search-circle","47","2.2.0","175519","79186","visual_search_trial","460","","f","","","","","","","","","","null","red_blue_mix","1","[""images/Red_Triangle.png"",""images/Blue_Circle.png"",""images/Blue_Circle.png"",""images/Blue_Circle.png"",""images/Red_Circle.png"",""images/Blue_Triangle.png""]","true","[[4,92],[36,213],[157,245],[245,157],[213,36],[92,4]]","true",""
"visual-search-circle","48","2.2.0","177679","79186","visual_search_trial","656","","j","","","","","","","","","","null","blue_triangle","1","[""images/Blue_Triangle.png"",""images/Blue_Triangle.png"",""images/Blue_Triangle.png"",""images/Blue_Triangle.png"",""images/Blue_Triangle.png"",""images/Blue_Triangle.png"",""images/Blue_Triangle.png"",""images/Blue_Triangle.png"",""images/Blue_Triangle.png""]","true","[[249,116],[214,38],[138,0],[55,21],[4,90],[10,175],[70,237],[155,246],[226,198]]","false",""
"visual-search-circle","49","2.2.0","179642","79186","visual_search_trial","459","","f","","","","","","","","","","null","red_circle","1","[""images/Red_Circle.png"",""images/Red_Circle.png"",""images/Red_Circle.png""]","false","[[55,21],[70,237],[249,116]]","false",""
"visual-search-circle","50","2.2.0","181831","79186","visual_search_trial","686","","f","","","","","","","","","","null","blue_triangle","1","[""images/Red_Triangle.png"",""images/Blue_Triangle.png"",""images/Blue_Triangle.png"",""images/Blue_Triangle.png"",""images/Blue_Triangle.png"",""images/Blue_Triangle.png""]","true","[[183,14],[58,18],[0,129],[66,235],[191,231],[249,120]]","true",""
"html-keyboard-response","51","2.1.0","251798","79186","break","69967","<p>Great job so far! Please rest for a few seconds before continuing.</p>
                 <p>Press the <strong>W</strong> key on your keyboard to continue.</p>","w","","","","","","","","","","","","","","","","","W"
"visual-search-circle","52","2.2.0","254382","79186","visual_search_trial","1080","","f","","","","","","","","","","null","red_blue_mix","2","[""images/Red_Triangle.png"",""images/Blue_Circle.png"",""images/Blue_Triangle.png"",""images/Red_Circle.png"",""images/Blue_Circle.png"",""images/Red_Circle.png"",""images/Blue_Triangle.png"",""images/Blue_Triangle.png"",""images/Blue_Triangle.png""]","true","[[25,200],[96,246],[181,236],[240,173],[244,88],[193,20],[109,0],[33,39],[0,118]]","true",""
"visual-search-circle","53","2.2.0","257972","79186","visual_search_trial","2087","","j","","","","","","","","","","null","blue_triangle","2","[""images/Blue_Triangle.png"",""images/Blue_Triangle.png"",""images/Blue_Triangle.png""]","true","[[105,248],[241,80],[27,46]]","false",""
"visual-search-circle","54","2.2.0","260014","79186","visual_search_trial","539","","j","","","","","","","","","","null","red_blue_mix","2","[""images/Red_Triangle.png"",""images/Blue_Circle.png"",""images/Blue_Triangle.png""]","false","[[171,240],[201,26],[1,107]]","true",""
"visual-search-circle","55","2.2.0","262117","79186","visual_search_trial","599","","f","","","","","","","","","","null","blue_triangle","2","[""images/Red_Triangle.png"",""images/Blue_Triangle.png"",""images/Blue_Triangle.png"",""images/Blue_Triangle.png"",""images/Blue_Triangle.png"",""images/Blue_Triangle.png"",""images/Blue_Triangle.png"",""images/Blue_Triangle.png"",""images/Blue_Triangle.png""]","true","[[53,22],[4,92],[11,177],[72,238],[157,245],[227,196],[249,114],[213,36],[135,0]]","true",""
"visual-search-circle","56","2.2.0","264200","79186","visual_search_trial","578","","f","","","","","","","","","","null","red_blue_mix","2","[""images/Red_Circle.png"",""images/Blue_Triangle.png"",""images/Blue_Triangle.png"",""images/Blue_Circle.png"",""images/Red_Circle.png"",""images/Blue_Circle.png""]","false","[[237,70],[133,0],[21,55],[12,179],[116,249],[228,194]]","false",""
"visual-search-circle","57","2.2.0","266271","79186","visual_search_trial","567","","f","","","","","","","","","","null","blue_triangle","2","[""images/Red_Triangle.png"",""images/Blue_Triangle.png"",""images/Blue_Triangle.png"",""images/Blue_Triangle.png"",""images/Blue_Triangle.png"",""images/Blue_Triangle.png""]","true","[[17,189],[127,249],[234,185],[232,60],[122,0],[15,64]]","true",""
"visual-search-circle","58","2.2.0","268657","79186","visual_search_trial","883","","f","","","","","","","","","","null","red_circle","2","[""images/Red_Triangle.png"",""images/Red_Circle.png"",""images/Red_Circle.png"",""images/Red_Circle.png"",""images/Red_Circle.png"",""images/Red_Circle.png""]","true","[[3,153],[88,244],[210,216],[246,96],[161,5],[39,33]]","true",""
"visual-search-circle","59","2.2.0","270831","79186","visual_search_trial","671","","f","","","","","","","","","","null","red_blue_mix","2","[""images/Blue_Circle.png"",""images/Blue_Circle.png"",""images/Blue_Circle.png"",""images/Red_Circle.png"",""images/Red_Circle.png"",""images/Blue_Triangle.png"",""images/Red_Circle.png"",""images/Red_Circle.png"",""images/Blue_Circle.png""]","false","[[42,30],[1,105],[17,189],[84,243],[169,241],[234,185],[247,101],[203,27],[122,0]]","false",""
"visual-search-circle","60","2.2.0","273053","79186","visual_search_trial","718","","f","","","","","","","","","","null","red_circle","2","[""images/Red_Triangle.png"",""images/Red_Circle.png"",""images/Red_Circle.png""]","true","[[157,4],[4,157],[213,213]]","true",""
"visual-search-circle","61","2.2.0","275495","79186","visual_search_trial","938","","j","","","","","","","","","","null","blue_triangle","2","[""images/Blue_Triangle.png"",""images/Blue_Triangle.png"",""images/Blue_Triangle.png"",""images/Blue_Triangle.png"",""images/Blue_Triangle.png"",""images/Blue_Triangle.png"",""images/Blue_Triangle.png"",""images/Blue_Triangle.png"",""images/Blue_Triangle.png""]","true","[[15,64],[2,148],[46,222],[127,249],[207,219],[248,144],[232,60],[165,6],[80,8]]","false",""
"visual-search-circle","62","2.2.0","279123","79186","visual_search_trial","2125","","f","","","","","","","","","","null","red_blue_mix","2","[""images/Blue_Circle.png"",""images/Red_Circle.png"",""images/Red_Circle.png""]","false","[[22,196],[238,177],[114,0]]","false",""
"visual-search-circle","63","2.2.0","281306","79186","visual_search_trial","680","","f","","","","","","","","","","null","red_circle","2","[""images/Red_Circle.png"",""images/Red_Circle.png"",""images/Red_Circle.png""]","false","[[161,5],[3,153],[210,216]]","false",""
"visual-search-circle","64","2.2.0","283379","79186","visual_search_trial","570","","j","","","","","","","","","","null","blue_triangle","2","[""images/Blue_Triangle.png"",""images/Blue_Triangle.png"",""images/Blue_Triangle.png"",""images/Blue_Triangle.png"",""images/Blue_Triangle.png"",""images/Blue_Triangle.png""]","true","[[39,216],[161,244],[246,153],[210,33],[88,5],[3,96]]","false",""
"visual-search-circle","65","2.2.0","285413","79186","visual_search_trial","531","","f","","","","","","","","","","null","red_circle","2","[""images/Red_Triangle.png"",""images/Red_Circle.png"",""images/Red_Circle.png"",""images/Red_Circle.png"",""images/Red_Circle.png"",""images/Red_Circle.png"",""images/Red_Circle.png"",""images/Red_Circle.png"",""images/Red_Circle.png""]","true","[[0,129],[32,208],[107,248],[191,231],[243,163],[240,78],[183,14],[99,2],[26,48]]","true",""
"visual-search-circle","66","2.2.0","287493","79186","visual_search_trial","578","","f","","","","","","","","","","null","blue_triangle","2","[""images/Red_Triangle.png"",""images/Blue_Triangle.png"",""images/Blue_Triangle.png""]","true","[[220,205],[146,1],[7,167]]","true",""
"visual-search-circle","67","2.2.0","289621","79186","visual_search_trial","624","","f","","","","","","","","","","null","red_circle","2","[""images/Red_Circle.png"",""images/Red_Circle.png"",""images/Red_Circle.png"",""images/Red_Circle.png"",""images/Red_Circle.png"",""images/Red_Circle.png""]","false","[[38,35],[3,155],[90,245],[211,214],[246,94],[159,4]]","false",""
"visual-search-circle","68","2.2.0","291678","79186","visual_search_trial","553","","f","","","","","","","","","","null","red_blue_mix","2","[""images/Red_Triangle.png"",""images/Red_Circle.png"",""images/Blue_Triangle.png"",""images/Red_Circle.png"",""images/Blue_Triangle.png"",""images/Blue_Circle.png""]","true","[[248,105],[169,8],[46,27],[1,144],[80,241],[203,222]]","true",""
"visual-search-circle","69","2.2.0","293536","79186","visual_search_trial","354","","f","","","","","","","","","","null","red_circle","2","[""images/Red_Circle.png"",""images/Red_Circle.png"",""images/Red_Circle.png"",""images/Red_Circle.png"",""images/Red_Circle.png"",""images/Red_Circle.png"",""images/Red_Circle.png"",""images/Red_Circle.png"",""images/Red_Circle.png""]","false","[[183,14],[99,2],[26,48],[0,129],[32,208],[107,248],[191,231],[243,163],[240,78]]","false",""
"visual-search-circle","70","2.2.0","295872","79186","visual_search_trial","832","","j","","","","","","","","","","null","blue_triangle","3","[""images/Blue_Triangle.png"",""images/Blue_Triangle.png"",""images/Blue_Triangle.png"",""images/Blue_Triangle.png"",""images/Blue_Triangle.png"",""images/Blue_Triangle.png""]","true","[[237,179],[228,55],[116,0],[12,70],[21,194],[133,249]]","false",""
"visual-search-circle","71","2.2.0","297984","79186","visual_search_trial","609","","f","","","","","","","","","","null","red_circle","3","[""images/Red_Triangle.png"",""images/Red_Circle.png"",""images/Red_Circle.png"",""images/Red_Circle.png"",""images/Red_Circle.png"",""images/Red_Circle.png""]","true","[[203,222],[248,105],[169,8],[46,27],[1,144],[80,241]]","true",""
"visual-search-circle","72","2.2.0","299990","79186","visual_search_trial","501","","f","","","","","","","","","","null","blue_triangle","3","[""images/Red_Triangle.png"",""images/Blue_Triangle.png"",""images/Blue_Triangle.png"",""images/Blue_Triangle.png"",""images/Blue_Triangle.png"",""images/Blue_Triangle.png"",""images/Blue_Triangle.png"",""images/Blue_Triangle.png"",""images/Blue_Triangle.png""]","true","[[1,142],[41,217],[120,249],[201,223],[247,150],[235,66],[171,9],[86,6],[18,58]]","true",""
"visual-search-circle","73","2.2.0","301935","79186","visual_search_trial","443","","f","","","","","","","","","","null","red_circle","3","[""images/Red_Circle.png"",""images/Red_Circle.png"",""images/Red_Circle.png"",""images/Red_Circle.png"",""images/Red_Circle.png"",""images/Red_Circle.png""]","false","[[173,240],[249,140],[200,25],[76,9],[0,109],[49,224]]","false",""
"visual-search-circle","74","2.2.0","303920","79186","visual_search_trial","482","","f","","","","","","","","","","null","red_blue_mix","3","[""images/Red_Triangle.png"",""images/Blue_Triangle.png"",""images/Blue_Circle.png"",""images/Blue_Triangle.png"",""images/Blue_Triangle.png"",""images/Blue_Circle.png""]","true","[[2,99],[41,217],[163,243],[247,150],[208,32],[86,6]]","true",""
"visual-search-circle","75","2.2.0","306688","79186","visual_search_trial","1264","","j","","","","","","","","","","null","blue_triangle","3","[""images/Blue_Triangle.png"",""images/Blue_Triangle.png"",""images/Blue_Triangle.png""]","true","[[223,201],[142,1],[9,171]]","false",""
"visual-search-circle","76","2.2.0","309907","79186","visual_search_trial","1716","","f","","","","","","","","","","null","red_blue_mix","3","[""images/Blue_Circle.png"",""images/Blue_Triangle.png"",""images/Red_Circle.png""]","false","[[78,240],[248,107],[48,26]]","false",""
"visual-search-circle","77","2.2.0","312416","79186","visual_search_trial","1006","","f","","","","","","","","","","null","blue_triangle","3","[""images/Red_Triangle.png"",""images/Blue_Triangle.png"",""images/Blue_Triangle.png"",""images/Blue_Triangle.png"",""images/Blue_Triangle.png"",""images/Blue_Triangle.png""]","true","[[157,4],[36,36],[4,157],[92,245],[213,213],[245,92]]","true",""
"visual-search-circle","78","2.2.0","314641","79186","visual_search_trial","722","","f","","","","","","","","","","null","red_blue_mix","3","[""images/Blue_Triangle.png"",""images/Blue_Triangle.png"",""images/Blue_Circle.png"",""images/Blue_Triangle.png"",""images/Blue_Triangle.png"",""images/Red_Circle.png""]","false","[[248,103],[167,7],[44,29],[1,146],[82,242],[205,220]]","false",""
"visual-search-circle","79","2.2.0","317025","79186","visual_search_trial","882","","f","","","","","","","","","","null","red_circle","3","[""images/Red_Triangle.png"",""images/Red_Circle.png"",""images/Red_Circle.png""]","true","[[11,72],[135,249],[227,53]]","true",""
"visual-search-circle","80","2.2.0","319039","79186","visual_search_trial","511","","f","","","","","","","","","","null","red_blue_mix","3","[""images/Red_Triangle.png"",""images/Red_Circle.png"",""images/Red_Circle.png""]","true","[[185,234],[189,17],[0,122]]","true",""
"visual-search-circle","81","2.2.0","321016","79186","visual_search_trial","474","","f","","","","","","","","","","null","red_circle","3","[""images/Red_Circle.png"",""images/Red_Circle.png"",""images/Red_Circle.png"",""images/Red_Circle.png"",""images/Red_Circle.png"",""images/Red_Circle.png"",""images/Red_Circle.png"",""images/Red_Circle.png"",""images/Red_Circle.png""]","false","[[96,3],[25,49],[0,131],[33,210],[109,249],[193,229],[244,161],[240,76],[181,13]]","false",""
"visual-search-circle","82","2.2.0","323027","79186","visual_search_trial","507","","f","","","","","","","","","","null","red_blue_mix","3","[""images/Red_Triangle.png"",""images/Red_Circle.png"",""images/Blue_Circle.png"",""images/Red_Circle.png"",""images/Blue_Triangle.png"",""images/Blue_Triangle.png"",""images/Blue_Triangle.png"",""images/Blue_Triangle.png"",""images/Red_Circle.png""]","true","[[94,3],[23,51],[0,133],[35,211],[111,249],[194,228],[245,159],[239,74],[179,12]]","true",""
"visual-search-circle","83","2.2.0","325093","79186","visual_search_trial","562","","f","","","","","","","","","","null","red_circle","3","[""images/Red_Circle.png"",""images/Red_Circle.png"",""images/Red_Circle.png""]","false","[[33,210],[244,161],[96,3]]","false",""
"visual-search-circle","84","2.2.0","327093","79186","visual_search_trial","496","","f","","","","","","","","","","null","red_blue_mix","3","[""images/Blue_Triangle.png"",""images/Red_Circle.png"",""images/Blue_Triangle.png"",""images/Blue_Triangle.png"",""images/Blue_Triangle.png"",""images/Blue_Circle.png"",""images/Blue_Circle.png"",""images/Blue_Triangle.png"",""images/Blue_Triangle.png""]","false","[[235,66],[171,9],[86,6],[18,58],[1,142],[41,217],[120,249],[201,223],[247,150]]","false",""
"visual-search-circle","85","2.2.0","329366","79186","visual_search_trial","769","","j","","","","","","","","","","null","blue_triangle","3","[""images/Blue_Triangle.png"",""images/Blue_Triangle.png"",""images/Blue_Triangle.png"",""images/Blue_Triangle.png"",""images/Blue_Triangle.png"",""images/Blue_Triangle.png"",""images/Blue_Triangle.png"",""images/Blue_Triangle.png"",""images/Blue_Triangle.png""]","true","[[249,135],[227,53],[157,4],[72,11],[11,72],[4,157],[53,227],[135,249],[213,213]]","false",""
"visual-search-circle","86","2.2.0","331455","79186","visual_search_trial","586","","f","","","","","","","","","","null","red_circle","3","[""images/Red_Triangle.png"",""images/Red_Circle.png"",""images/Red_Circle.png"",""images/Red_Circle.png"",""images/Red_Circle.png"",""images/Red_Circle.png"",""images/Red_Circle.png"",""images/Red_Circle.png"",""images/Red_Circle.png""]","true","[[214,38],[138,0],[55,21],[4,90],[10,175],[70,237],[155,246],[226,198],[249,116]]","true",""
"visual-search-circle","87","2.2.0","333524","79186","visual_search_trial","566","","f","","","","","","","","","","null","blue_triangle","3","[""images/Red_Triangle.png"",""images/Blue_Triangle.png"",""images/Blue_Triangle.png""]","true","[[84,6],[42,219],[247,148]]","true",""
"html-keyboard-response","88","2.1.0","338623","79186","break","5098","<p>Great job so far! Please rest for a few seconds before continuing.</p>
                 <p>Press the <strong>Q</strong> key on your keyboard to continue.</p>","q","","","","","","","","","","","","","","","","","Q"
"visual-search-circle","89","2.2.0","341575","79186","visual_search_trial","1449","","j","","","","","","","","","","null","blue_triangle","4","[""images/Blue_Triangle.png"",""images/Blue_Triangle.png"",""images/Blue_Triangle.png""]","true","[[12,70],[133,249],[228,55]]","false",""
"visual-search-circle","90","2.2.0","344236","79186","visual_search_trial","1158","","f","","","","","","","","","","null","red_circle","4","[""images/Red_Circle.png"",""images/Red_Circle.png"",""images/Red_Circle.png"",""images/Red_Circle.png"",""images/Red_Circle.png"",""images/Red_Circle.png""]","false","[[171,240],[248,142],[201,26],[78,9],[1,107],[48,223]]","false",""
"visual-search-circle","91","2.2.0","346218","79186","visual_search_trial","479","","f","","","","","","","","","","null","red_blue_mix","4","[""images/Red_Triangle.png"",""images/Red_Circle.png"",""images/Red_Circle.png""]","true","[[159,245],[211,35],[3,94]]","true",""
"visual-search-circle","92","2.2.0","348232","79186","visual_search_trial","511","","f","","","","","","","","","","null","red_circle","4","[""images/Red_Circle.png"",""images/Red_Circle.png"",""images/Red_Circle.png""]","false","[[64,234],[249,122],[60,17]]","false",""
"visual-search-circle","93","2.2.0","350444","79186","visual_search_trial","709","","f","","","","","","","","","","null","red_blue_mix","4","[""images/Red_Triangle.png"",""images/Blue_Circle.png"",""images/Blue_Triangle.png"",""images/Blue_Circle.png"",""images/Red_Circle.png"",""images/Red_Circle.png"",""images/Blue_Circle.png"",""images/Red_Circle.png"",""images/Blue_Circle.png""]","true","[[205,220],[248,146],[233,62],[167,7],[82,7],[16,62],[1,146],[44,220],[124,250]]","true",""
"visual-search-circle","94","2.2.0","352618","79186","visual_search_trial","670","","j","","","","","","","","","","null","blue_triangle","4","[""images/Blue_Triangle.png"",""images/Blue_Triangle.png"",""images/Blue_Triangle.png"",""images/Blue_Triangle.png"",""images/Blue_Triangle.png"",""images/Blue_Triangle.png""]","true","[[46,222],[169,241],[248,144],[203,27],[80,8],[1,105]]","false",""
"visual-search-circle","95","2.2.0","354593","79186","visual_search_trial","473","","f","","","","","","","","","","null","red_circle","4","[""images/Red_Triangle.png"",""images/Red_Circle.png"",""images/Red_Circle.png""]","true","[[208,217],[163,6],[2,150]]","true",""
"visual-search-circle","96","2.2.0","356947","79186","visual_search_trial","850","","f","","","","","","","","","","null","red_blue_mix","4","[""images/Red_Circle.png"",""images/Blue_Circle.png"",""images/Red_Circle.png"",""images/Blue_Circle.png"",""images/Blue_Circle.png"",""images/Blue_Triangle.png"",""images/Red_Circle.png"",""images/Red_Circle.png"",""images/Blue_Circle.png""]","false","[[18,191],[86,243],[171,240],[235,183],[247,99],[201,26],[120,0],[41,32],[1,107]]","false",""
"visual-search-circle","97","2.2.0","359030","79186","visual_search_trial","579","","f","","","","","","","","","","null","blue_triangle","4","[""images/Red_Triangle.png"",""images/Blue_Triangle.png"",""images/Blue_Triangle.png"",""images/Blue_Triangle.png"",""images/Blue_Triangle.png"",""images/Blue_Triangle.png""]","true","[[68,236],[193,229],[249,118],[181,13],[56,20],[0,131]]","true",""
"visual-search-circle","98","2.2.0","360898","79186","visual_search_trial","365","","f","","","","","","","","","","null","red_blue_mix","4","[""images/Blue_Triangle.png"",""images/Blue_Circle.png"",""images/Blue_Circle.png"",""images/Blue_Triangle.png"",""images/Blue_Circle.png"",""images/Red_Circle.png""]","false","[[173,9],[49,25],[0,140],[76,240],[200,224],[249,109]]","false",""
"visual-search-circle","99","2.2.0","362701","79186","visual_search_trial","299","","f","","","","","","","","","","null","red_circle","4","[""images/Red_Triangle.png"",""images/Red_Circle.png"",""images/Red_Circle.png"",""images/Red_Circle.png"",""images/Red_Circle.png"",""images/Red_Circle.png"",""images/Red_Circle.png"",""images/Red_Circle.png"",""images/Red_Circle.png""]","true","[[6,86],[9,171],[66,235],[150,247],[223,201],[249,120],[217,41],[142,1],[58,18]]","true",""
"visual-search-circle","100","2.2.0","364756","79186","visual_search_trial","550","","f","","","","","","","","","","null","red_blue_mix","4","[""images/Red_Triangle.png"",""images/Red_Circle.png"",""images/Blue_Triangle.png"",""images/Blue_Triangle.png"",""images/Blue_Circle.png"",""images/Blue_Triangle.png""]","true","[[13,68],[20,193],[131,249],[236,181],[229,56],[118,0]]","true",""
"visual-search-circle","101","2.2.0","367113","79186","visual_search_trial","853","","j","","","","","","","","","","null","red_circle","4","[""images/Red_Circle.png"",""images/Red_Circle.png"",""images/Red_Circle.png"",""images/Red_Circle.png"",""images/Red_Circle.png"",""images/Red_Circle.png"",""images/Red_Circle.png"",""images/Red_Circle.png"",""images/Red_Circle.png""]","true","[[109,0],[33,39],[0,118],[25,200],[96,246],[181,236],[240,173],[244,88],[193,20]]","false",""
"visual-search-circle","102","2.2.0","369630","79186","visual_search_trial","1013","","f","","","","","","","","","","null","blue_triangle","4","[""images/Red_Triangle.png"",""images/Blue_Triangle.png"",""images/Blue_Triangle.png""]","true","[[208,217],[163,6],[2,150]]","true",""
"visual-search-circle","103","2.2.0","373628","79186","visual_search_trial","2496","","f","","","","","","","","","","null","red_circle","4","[""images/Red_Triangle.png"",""images/Red_Circle.png"",""images/Red_Circle.png"",""images/Red_Circle.png"",""images/Red_Circle.png"",""images/Red_Circle.png""]","true","[[247,148],[207,30],[84,6],[2,101],[42,219],[165,243]]","true",""
"visual-search-circle","104","2.2.0","375916","79186","visual_search_trial","785","","f","","","","","","","","","","null","blue_triangle","4","[""images/Red_Triangle.png"",""images/Blue_Triangle.png"",""images/Blue_Triangle.png"",""images/Blue_Triangle.png"",""images/Blue_Triangle.png"",""images/Blue_Triangle.png"",""images/Blue_Triangle.png"",""images/Blue_Triangle.png"",""images/Blue_Triangle.png""]","true","[[165,243],[232,189],[248,105],[207,30],[127,0],[46,27],[2,101],[15,185],[80,241]]","true",""
"visual-search-circle","105","2.2.0","378280","79186","visual_search_trial","861","","j","","","","","","","","","","null","red_blue_mix","4","[""images/Blue_Circle.png"",""images/Blue_Triangle.png"",""images/Red_Circle.png""]","true","[[70,12],[55,228],[249,133]]","false",""
"visual-search-circle","106","2.2.0","380672","79186","visual_search_trial","888","","j","","","","","","","","","","null","blue_triangle","4","[""images/Blue_Triangle.png"",""images/Blue_Triangle.png"",""images/Blue_Triangle.png"",""images/Blue_Triangle.png"",""images/Blue_Triangle.png"",""images/Blue_Triangle.png"",""images/Blue_Triangle.png"",""images/Blue_Triangle.png"",""images/Blue_Triangle.png""]","true","[[15,185],[80,241],[165,243],[232,189],[248,105],[207,30],[127,0],[46,27],[2,101]]","false",""
"visual-search-circle","107","2.2.0","383129","79186","visual_search_trial","955","","f","","","","","","","","","","null","blue_triangle","5","[""images/Red_Triangle.png"",""images/Blue_Triangle.png"",""images/Blue_Triangle.png"",""images/Blue_Triangle.png"",""images/Blue_Triangle.png"",""images/Blue_Triangle.png""]","true","[[0,125],[62,233],[187,233],[250,125],[187,16],[62,16]]","true",""
"visual-search-circle","108","2.2.0","385278","79186","visual_search_trial","647","","f","","","","","","","","","","null","red_circle","5","[""images/Red_Circle.png"",""images/Red_Circle.png"",""images/Red_Circle.png""]","false","[[155,246],[214,38],[4,90]]","false",""
"visual-search-circle","109","2.2.0","387793","79186","visual_search_trial","1011","","f","","","","","","","","","","null","red_blue_mix","5","[""images/Red_Triangle.png"",""images/Red_Circle.png"",""images/Red_Circle.png""]","true","[[248,107],[48,26],[78,240]]","true",""
"visual-search-circle","110","2.2.0","390639","79186","visual_search_trial","1344","","f","","","","","","","","","","null","red_circle","5","[""images/Red_Triangle.png"",""images/Red_Circle.png"",""images/Red_Circle.png"",""images/Red_Circle.png"",""images/Red_Circle.png"",""images/Red_Circle.png""]","true","[[245,157],[213,36],[92,4],[4,92],[36,213],[157,245]]","true",""
"visual-search-circle","111","2.2.0","392965","79186","visual_search_trial","822","","f","","","","","","","","","","null","blue_triangle","5","[""images/Red_Triangle.png"",""images/Blue_Triangle.png"",""images/Blue_Triangle.png"",""images/Blue_Triangle.png"",""images/Blue_Triangle.png"",""images/Blue_Triangle.png"",""images/Blue_Triangle.png"",""images/Blue_Triangle.png"",""images/Blue_Triangle.png""]","true","[[68,236],[153,246],[224,200],[249,118],[216,39],[140,0],[56,20],[5,88],[9,173]]","true",""
"visual-search-circle","112","2.2.0","395299","79186","visual_search_trial","832","","j","","","","","","","","","","null","red_circle","5","[""images/Red_Circle.png"",""images/Red_Circle.png"",""images/Red_Circle.png"",""images/Red_Circle.png"",""images/Red_Circle.png"",""images/Red_Circle.png""]","true","[[232,60],[122,0],[15,64],[17,189],[127,249],[234,185]]","false",""
"visual-search-circle","113","2.2.0","398532","79186","visual_search_trial","1730","","j","","","","","","","","","","null","red_blue_mix","5","[""images/Blue_Circle.png"",""images/Red_Circle.png"",""images/Blue_Circle.png""]","true","[[249,131],[68,13],[56,229]]","false",""
"visual-search-circle","114","2.2.0","401333","79186","visual_search_trial","1298","","f","","","","","","","","","","null","blue_triangle","5","[""images/Red_Triangle.png"",""images/Blue_Triangle.png"",""images/Blue_Triangle.png""]","true","[[207,30],[2,101],[165,243]]","true",""
"visual-search-circle","115","2.2.0","403865","79186","visual_search_trial","1028","","f","","","","","","","","","","null","red_blue_mix","5","[""images/Red_Triangle.png"",""images/Red_Circle.png"",""images/Red_Circle.png"",""images/Blue_Circle.png"",""images/Blue_Circle.png"",""images/Red_Circle.png"",""images/Blue_Circle.png"",""images/Blue_Circle.png"",""images/Red_Circle.png""]","true","[[181,236],[240,173],[244,88],[193,20],[109,0],[33,39],[0,118],[25,200],[96,246]]","true",""
"visual-search-circle","116","2.2.0","406199","79186","visual_search_trial","831","","j","","","","","","","","","","null","red_circle","5","[""images/Red_Circle.png"",""images/Red_Circle.png"",""images/Red_Circle.png"",""images/Red_Circle.png"",""images/Red_Circle.png"",""images/Red_Circle.png"",""images/Red_Circle.png"",""images/Red_Circle.png"",""images/Red_Circle.png""]","true","[[25,49],[0,131],[33,210],[109,249],[193,229],[244,161],[240,76],[181,13],[96,3]]","false",""
"visual-search-circle","117","2.2.0","408741","79186","visual_search_trial","1038","","j","","","","","","","","","","null","blue_triangle","5","[""images/Blue_Triangle.png"",""images/Blue_Triangle.png"",""images/Blue_Triangle.png""]","true","[[17,189],[234,185],[122,0]]","false",""
"visual-search-circle","118","2.2.0","411835","79186","visual_search_trial","1590","","j","","","","","","","","","","null","red_blue_mix","5","[""images/Blue_Triangle.png"",""images/Blue_Circle.png"",""images/Blue_Circle.png"",""images/Blue_Triangle.png"",""images/Blue_Triangle.png"",""images/Blue_Triangle.png"",""images/Red_Circle.png"",""images/Blue_Triangle.png"",""images/Blue_Triangle.png""]","true","[[49,25],[3,96],[13,181],[76,240],[161,244],[229,193],[249,109],[210,33],[131,0]]","false",""
"visual-search-circle","119","2.2.0","414548","79186","visual_search_trial","1210","","j","","","","","","","","","","null","blue_triangle","5","[""images/Blue_Triangle.png"",""images/Blue_Triangle.png"",""images/Blue_Triangle.png"",""images/Blue_Triangle.png"",""images/Blue_Triangle.png"",""images/Blue_Triangle.png"",""images/Blue_Triangle.png"",""images/Blue_Triangle.png"",""images/Blue_Triangle.png""]","true","[[3,94],[12,179],[74,239],[159,245],[228,194],[249,111],[211,35],[133,0],[51,23]]","false",""
"visual-search-circle","120","2.2.0","417009","79186","visual_search_trial","957","","f","","","","","","","","","","null","red_circle","5","[""images/Red_Triangle.png"",""images/Red_Circle.png"",""images/Red_Circle.png"",""images/Red_Circle.png"",""images/Red_Circle.png"",""images/Red_Circle.png"",""images/Red_Circle.png"",""images/Red_Circle.png"",""images/Red_Circle.png""]","true","[[64,15],[8,80],[6,165],[60,232],[144,248],[219,207],[249,127],[222,46],[148,2]]","true",""
"visual-search-circle","121","2.2.0","419447","79186","visual_search_trial","936","","j","","","","","","","","","","null","blue_triangle","5","[""images/Blue_Triangle.png"",""images/Blue_Triangle.png"",""images/Blue_Triangle.png"",""images/Blue_Triangle.png"",""images/Blue_Triangle.png"",""images/Blue_Triangle.png""]","true","[[224,49],[109,0],[9,76],[25,200],[140,249],[240,173]]","false",""
"visual-search-circle","122","2.2.0","422000","79186","visual_search_trial","1050","","j","","","","","","","","","","null","red_blue_mix","5","[""images/Blue_Circle.png"",""images/Red_Circle.png"",""images/Blue_Circle.png"",""images/Red_Circle.png"",""images/Blue_Triangle.png"",""images/Blue_Circle.png""]","true","[[96,3],[5,88],[33,210],[153,246],[244,161],[216,39]]","false",""
"visual-search-circle","123","2.2.0","424355","79186","visual_search_trial","852","","f","","","","","","","","","","null","red_circle","5","[""images/Red_Triangle.png"",""images/Red_Circle.png"",""images/Red_Circle.png""]","true","[[219,207],[148,2],[6,165]]","true",""
"visual-search-circle","124","2.2.0","427122","79186","visual_search_trial","1265","","f","","","","","","","","","","null","red_blue_mix","5","[""images/Red_Triangle.png"",""images/Blue_Triangle.png"",""images/Blue_Circle.png"",""images/Blue_Triangle.png"",""images/Blue_Triangle.png"",""images/Red_Circle.png""]","true","[[237,179],[228,55],[116,0],[12,70],[21,194],[133,249]]","true",""
"html-keyboard-response","125","2.1.0","515974","79186","break","88854","<p>Great job so far! Please rest for a few seconds before continuing.</p>
                 <p>Press the <strong>Z</strong> key on your keyboard to continue.</p>","z","","","","","","","","","","","","","","","","","Z"
"visual-search-circle","126","2.2.0","519221","79186","visual_search_trial","1743","","f","","","","","","","","","","null","blue_triangle","6","[""images/Red_Triangle.png"",""images/Blue_Triangle.png"",""images/Blue_Triangle.png"",""images/Blue_Triangle.png"",""images/Blue_Triangle.png"",""images/Blue_Triangle.png"",""images/Blue_Triangle.png"",""images/Blue_Triangle.png"",""images/Blue_Triangle.png""]","true","[[248,142],[231,58],[163,6],[78,9],[14,66],[2,150],[48,223],[129,249],[208,217]]","true",""
"visual-search-circle","127","2.2.0","521240","79186","visual_search_trial","516","","f","","","","","","","","","","null","red_blue_mix","6","[""images/Red_Triangle.png"",""images/Blue_Triangle.png"",""images/Blue_Triangle.png""]","true","[[0,118],[181,236],[193,20]]","true",""
"visual-search-circle","128","2.2.0","523285","79186","visual_search_trial","543","","j","","","","","","","","","","null","red_circle","6","[""images/Red_Circle.png"",""images/Red_Circle.png"",""images/Red_Circle.png""]","true","[[247,101],[42,30],[84,243]]","false",""
"visual-search-circle","129","2.2.0","525853","79186","visual_search_trial","1065","","j","","","","","","","","","","null","red_blue_mix","6","[""images/Blue_Triangle.png"",""images/Blue_Circle.png"",""images/Blue_Triangle.png""]","true","[[51,23],[74,239],[249,111]]","false",""
"visual-search-circle","130","2.2.0","528023","79186","visual_search_trial","666","","f","","","","","","","","","","null","blue_triangle","6","[""images/Red_Triangle.png"",""images/Blue_Triangle.png"",""images/Blue_Triangle.png""]","true","[[22,53],[114,249],[238,72]]","true",""
"visual-search-circle","131","2.2.0","530311","79186","visual_search_trial","784","","f","","","","","","","","","","null","red_circle","6","[""images/Red_Triangle.png"",""images/Red_Circle.png"",""images/Red_Circle.png"",""images/Red_Circle.png"",""images/Red_Circle.png"",""images/Red_Circle.png"",""images/Red_Circle.png"",""images/Red_Circle.png"",""images/Red_Circle.png""]","true","[[4,157],[53,227],[135,249],[213,213],[249,135],[227,53],[157,4],[72,11],[11,72]]","true",""
"visual-search-circle","132","2.2.0","532326","79186","visual_search_trial","512","","j","","","","","","","","","","null","blue_triangle","6","[""images/Blue_Triangle.png"",""images/Blue_Triangle.png"",""images/Blue_Triangle.png"",""images/Blue_Triangle.png"",""images/Blue_Triangle.png"",""images/Blue_Triangle.png"",""images/Blue_Triangle.png"",""images/Blue_Triangle.png"",""images/Blue_Triangle.png""]","true","[[8,169],[64,234],[148,247],[222,203],[249,122],[219,42],[144,1],[60,17],[6,84]]","false",""
"visual-search-circle","133","2.2.0","534464","79186","visual_search_trial","636","","f","","","","","","","","","","null","red_circle","6","[""images/Red_Circle.png"",""images/Red_Circle.png"",""images/Red_Circle.png"",""images/Red_Circle.png"",""images/Red_Circle.png"",""images/Red_Circle.png""]","false","[[249,111],[175,10],[51,23],[0,138],[74,239],[198,226]]","false",""
"visual-search-circle","134","2.2.0","536910","79186","visual_search_trial","943","","j","","","","","","","","","","null","red_blue_mix","6","[""images/Blue_Circle.png"",""images/Red_Circle.png"",""images/Blue_Triangle.png"",""images/Red_Circle.png"",""images/Blue_Circle.png"",""images/Red_Circle.png""]","true","[[169,241],[248,144],[203,27],[80,8],[1,105],[46,222]]","false",""
"visual-search-circle","135","2.2.0","539303","79186","visual_search_trial","889","","f","","","","","","","","","","null","red_circle","6","[""images/Red_Triangle.png"",""images/Red_Circle.png"",""images/Red_Circle.png"",""images/Red_Circle.png"",""images/Red_Circle.png"",""images/Red_Circle.png""]","true","[[70,237],[194,228],[249,116],[179,12],[55,21],[0,133]]","true",""
"visual-search-circle","136","2.2.0","541417","79186","visual_search_trial","612","","f","","","","","","","","","","null","blue_triangle","6","[""images/Red_Triangle.png"",""images/Blue_Triangle.png"",""images/Blue_Triangle.png"",""images/Blue_Triangle.png"",""images/Blue_Triangle.png"",""images/Blue_Triangle.png""]","true","[[20,193],[131,249],[236,181],[229,56],[118,0],[13,68]]","true",""
"visual-search-circle","137","2.2.0","543725","79186","visual_search_trial","804","","j","","","","","","","","","","null","red_blue_mix","6","[""images/Red_Circle.png"",""images/Red_Circle.png"",""images/Blue_Circle.png"",""images/Red_Circle.png"",""images/Red_Circle.png"",""images/Red_Circle.png"",""images/Blue_Circle.png"",""images/Blue_Triangle.png"",""images/Red_Circle.png""]","true","[[211,214],[249,138],[228,55],[159,4],[74,10],[12,70],[3,155],[51,226],[133,249]]","false",""
"visual-search-circle","138","2.2.0","545952","79186","visual_search_trial","723","","j","","","","","","","","","","null","red_circle","6","[""images/Red_Circle.png"",""images/Red_Circle.png"",""images/Red_Circle.png"",""images/Red_Circle.png"",""images/Red_Circle.png"",""images/Red_Circle.png"",""images/Red_Circle.png"",""images/Red_Circle.png"",""images/Red_Circle.png""]","true","[[27,46],[0,127],[30,207],[105,248],[189,232],[243,165],[241,80],[185,15],[101,2]]","false",""
"visual-search-circle","139","2.2.0","548229","79186","visual_search_trial","774","","j","","","","","","","","","","null","blue_triangle","6","[""images/Blue_Triangle.png"",""images/Blue_Triangle.png"",""images/Blue_Triangle.png""]","true","[[125,250],[233,62],[16,62]]","false",""
"visual-search-circle","140","2.2.0","550622","79186","visual_search_trial","890","","f","","","","","","","","","","null","red_circle","6","[""images/Red_Triangle.png"",""images/Red_Circle.png"",""images/Red_Circle.png""]","true","[[249,111],[51,23],[74,239]]","true",""
"visual-search-circle","141","2.2.0","555490","79186","visual_search_trial","3365","","f","","","","","","","","","","null","red_blue_mix","6","[""images/Red_Triangle.png"",""images/Red_Circle.png"",""images/Blue_Triangle.png"",""images/Red_Circle.png"",""images/Blue_Circle.png"",""images/Blue_Circle.png""]","true","[[173,9],[49,25],[0,140],[76,240],[200,224],[249,109]]","true",""
"visual-search-circle","142","2.2.0","557640","79186","visual_search_trial","647","","j","","","","","","","","","","null","blue_triangle","6","[""images/Blue_Triangle.png"",""images/Blue_Triangle.png"",""images/Blue_Triangle.png"",""images/Blue_Triangle.png"",""images/Blue_Triangle.png"",""images/Blue_Triangle.png""]","true","[[229,193],[236,68],[131,0],[20,56],[13,181],[118,249]]","false",""
"visual-search-circle","143","2.2.0","560260","79186","visual_search_trial","1116","","f","","","","","","","","","","null","red_blue_mix","6","[""images/Red_Triangle.png"",""images/Blue_Triangle.png"",""images/Blue_Triangle.png"",""images/Blue_Triangle.png"",""images/Red_Circle.png"",""images/Blue_Triangle.png"",""images/Red_Circle.png"",""images/Blue_Circle.png"",""images/Blue_Circle.png""]","true","[[232,60],[165,6],[80,8],[15,64],[2,148],[46,222],[127,249],[207,219],[248,144]]","true",""
"visual-search-circle","144","2.2.0","562627","79186","visual_search_trial","864","","f","","","","","","","","","","null","red_blue_mix","7","[""images/Red_Triangle.png"",""images/Blue_Circle.png"",""images/Red_Circle.png"",""images/Red_Circle.png"",""images/Red_Circle.png"",""images/Blue_Circle.png"",""images/Red_Circle.png"",""images/Blue_Triangle.png"",""images/Red_Circle.png""]","true","[[0,116],[23,198],[94,246],[179,237],[239,175],[245,90],[194,21],[111,0],[35,38]]","true",""
"visual-search-circle","145","2.2.0","564820","79186","visual_search_trial","688","","j","","","","","","","","","","null","blue_triangle","7","[""images/Blue_Triangle.png"",""images/Blue_Triangle.png"",""images/Blue_Triangle.png"",""images/Blue_Triangle.png"",""images/Blue_Triangle.png"",""images/Blue_Triangle.png"",""images/Blue_Triangle.png"",""images/Blue_Triangle.png"",""images/Blue_Triangle.png""]","true","[[203,222],[247,148],[234,64],[169,8],[84,6],[17,60],[1,144],[42,219],[122,249]]","false",""
"visual-search-circle","146","2.2.0","567037","79186","visual_search_trial","715","","j","","","","","","","","","","null","red_blue_mix","7","[""images/Red_Circle.png"",""images/Blue_Circle.png"",""images/Blue_Circle.png"",""images/Red_Circle.png"",""images/Blue_Circle.png"",""images/Red_Circle.png""]","true","[[207,30],[84,6],[2,101],[42,219],[165,243],[247,148]]","false",""
"visual-search-circle","147","2.2.0","569227","79186","visual_search_trial","687","","j","","","","","","","","","","null","blue_triangle","7","[""images/Blue_Triangle.png"",""images/Blue_Triangle.png"",""images/Blue_Triangle.png"",""images/Blue_Triangle.png"",""images/Blue_Triangle.png"",""images/Blue_Triangle.png""]","true","[[238,72],[135,0],[22,53],[11,177],[114,249],[227,196]]","false",""
"visual-search-circle","148","2.2.0","571370","79186","visual_search_trial","639","","f","","","","","","","","","","null","red_circle","7","[""images/Red_Triangle.png"",""images/Red_Circle.png"",""images/Red_Circle.png"",""images/Red_Circle.png"",""images/Red_Circle.png"",""images/Red_Circle.png""]","true","[[38,214],[159,245],[246,155],[211,35],[90,4],[3,94]]","true",""
"visual-search-circle","149","2.2.0","573634","79186","visual_search_trial","760","","f","","","","","","","","","","null","blue_triangle","7","[""images/Red_Triangle.png"",""images/Blue_Triangle.png"",""images/Blue_Triangle.png"",""images/Blue_Triangle.png"",""images/Blue_Triangle.png"",""images/Blue_Triangle.png"",""images/Blue_Triangle.png"",""images/Blue_Triangle.png"",""images/Blue_Triangle.png""]","true","[[25,200],[96,246],[181,236],[240,173],[244,88],[193,20],[109,0],[33,39],[0,118]]","true",""
"visual-search-circle","150","2.2.0","575702","79186","visual_search_trial","565","","j","","","","","","","","","","null","red_circle","7","[""images/Red_Circle.png"",""images/Red_Circle.png"",""images/Red_Circle.png"",""images/Red_Circle.png"",""images/Red_Circle.png"",""images/Red_Circle.png"",""images/Red_Circle.png"",""images/Red_Circle.png"",""images/Red_Circle.png""]","true","[[25,49],[0,131],[33,210],[109,249],[193,229],[244,161],[240,76],[181,13],[96,3]]","false",""
"visual-search-circle","151","2.2.0","578220","79186","visual_search_trial","1015","","j","","","","","","","","","","null","red_blue_mix","7","[""images/Blue_Triangle.png"",""images/Red_Circle.png"",""images/Blue_Circle.png"",""images/Red_Circle.png"",""images/Blue_Triangle.png"",""images/Blue_Circle.png"",""images/Red_Circle.png"",""images/Red_Circle.png"",""images/Blue_Circle.png""]","true","[[241,80],[185,15],[101,2],[27,46],[0,127],[30,207],[105,248],[189,232],[243,165]]","false",""
"visual-search-circle","152","2.2.0","583256","79186","visual_search_trial","3532","","f","","","","","","","","","","null","blue_triangle","7","[""images/Red_Triangle.png"",""images/Blue_Triangle.png"",""images/Blue_Triangle.png""]","true","[[23,198],[239,175],[111,0]]","true",""
"visual-search-circle","153","2.2.0","585449","79186","visual_search_trial","690","","f","","","","","","","","","","null","red_circle","7","[""images/Red_Triangle.png"",""images/Red_Circle.png"",""images/Red_Circle.png"",""images/Red_Circle.png"",""images/Red_Circle.png"",""images/Red_Circle.png"",""images/Red_Circle.png"",""images/Red_Circle.png"",""images/Red_Circle.png""]","true","[[246,155],[237,70],[175,10],[90,4],[21,55],[0,138],[38,214],[116,249],[198,226]]","true",""
"visual-search-circle","154","2.2.0","587525","79186","visual_search_trial","573","","j","","","","","","","","","","null","blue_triangle","7","[""images/Blue_Triangle.png"",""images/Blue_Triangle.png"",""images/Blue_Triangle.png""]","true","[[249,140],[76,9],[49,224]]","false",""
"visual-search-circle","155","2.2.0","589735","79186","visual_search_trial","707","","f","","","","","","","","","","null","red_circle","7","[""images/Red_Triangle.png"",""images/Red_Circle.png"",""images/Red_Circle.png""]","true","[[0,138],[198,226],[175,10]]","true",""
"visual-search-circle","156","2.2.0","592821","79186","visual_search_trial","1582","","f","","","","","","","","","","null","red_blue_mix","7","[""images/Red_Triangle.png"",""images/Blue_Triangle.png"",""images/Blue_Circle.png"",""images/Red_Circle.png"",""images/Blue_Triangle.png"",""images/Blue_Triangle.png""]","true","[[175,10],[51,23],[0,138],[74,239],[198,226],[249,111]]","true",""
"visual-search-circle","157","2.2.0","594858","79186","visual_search_trial","534","","j","","","","","","","","","","null","red_circle","7","[""images/Red_Circle.png"",""images/Red_Circle.png"",""images/Red_Circle.png""]","true","[[247,101],[42,30],[84,243]]","false",""
"visual-search-circle","158","2.2.0","597014","79186","visual_search_trial","653","","f","","","","","","","","","","null","red_blue_mix","7","[""images/Red_Triangle.png"",""images/Red_Circle.png"",""images/Red_Circle.png""]","true","[[116,249],[237,70],[21,55]]","true",""
"visual-search-circle","159","2.2.0","599250","79186","visual_search_trial","733","","f","","","","","","","","","","null","blue_triangle","7","[""images/Red_Triangle.png"",""images/Blue_Triangle.png"",""images/Blue_Triangle.png"",""images/Blue_Triangle.png"",""images/Blue_Triangle.png"",""images/Blue_Triangle.png""]","true","[[33,39],[5,161],[96,246],[216,210],[244,88],[153,3]]","true",""
"visual-search-circle","160","2.2.0","601354","79186","visual_search_trial","601","","j","","","","","","","","","","null","red_circle","7","[""images/Red_Circle.png"",""images/Red_Circle.png"",""images/Red_Circle.png"",""images/Red_Circle.png"",""images/Red_Circle.png"",""images/Red_Circle.png""]","true","[[177,238],[249,135],[196,22],[72,11],[0,114],[53,227]]","false",""
"visual-search-circle","161","2.2.0","603480","79186","visual_search_trial","623","","j","","","","","","","","","","null","red_blue_mix","7","[""images/Red_Circle.png"",""images/Blue_Circle.png"",""images/Blue_Circle.png""]","true","[[18,58],[120,249],[235,66]]","false",""
"html-keyboard-response","162","2.1.0","739980","79186","break","136503","<p>Great job so far! Please rest for a few seconds before continuing.</p>
                 <p>Press the <strong>P</strong> key on your keyboard to continue.</p>","p","","","","","","","","","","","","","","","","","P"
"visual-search-circle","163","2.2.0","742635","79186","visual_search_trial","1152","","f","","","","","","","","","","null","blue_triangle","8","[""images/Red_Triangle.png"",""images/Blue_Triangle.png"",""images/Blue_Triangle.png""]","true","[[80,241],[248,105],[46,27]]","true",""
"visual-search-circle","164","2.2.0","744749","79186","visual_search_trial","611","","f","","","","","","","","","","null","red_circle","8","[""images/Red_Triangle.png"",""images/Red_Circle.png"",""images/Red_Circle.png""]","true","[[217,41],[6,86],[150,247]]","true",""
"visual-search-circle","165","2.2.0","746907","79186","visual_search_trial","654","","f","","","","","","","","","","null","red_blue_mix","8","[""images/Red_Triangle.png"",""images/Blue_Triangle.png"",""images/Red_Circle.png"",""images/Red_Circle.png"",""images/Red_Circle.png"",""images/Blue_Circle.png""]","true","[[165,6],[42,30],[2,148],[84,243],[207,219],[247,101]]","true",""
"visual-search-circle","166","2.2.0","748988","79186","visual_search_trial","579","","j","","","","","","","","","","null","red_circle","8","[""images/Red_Circle.png"",""images/Red_Circle.png"",""images/Red_Circle.png""]","true","[[249,135],[72,11],[53,227]]","false",""
"visual-search-circle","167","2.2.0","751070","79186","visual_search_trial","578","","f","","","","","","","","","","null","red_blue_mix","8","[""images/Red_Triangle.png"",""images/Red_Circle.png"",""images/Blue_Circle.png"",""images/Blue_Triangle.png"",""images/Blue_Circle.png"",""images/Blue_Triangle.png"",""images/Blue_Circle.png"",""images/Blue_Circle.png"",""images/Red_Circle.png""]","true","[[46,222],[127,249],[207,219],[248,144],[232,60],[165,6],[80,8],[15,64],[2,148]]","true",""
"visual-search-circle","168","2.2.0","753091","79186","visual_search_trial","518","","j","","","","","","","","","","null","red_circle","8","[""images/Red_Circle.png"",""images/Red_Circle.png"",""images/Red_Circle.png"",""images/Red_Circle.png"",""images/Red_Circle.png"",""images/Red_Circle.png""]","true","[[153,246],[244,161],[216,39],[96,3],[5,88],[33,210]]","false",""
"visual-search-circle","169","2.2.0","755312","79186","visual_search_trial","718","","f","","","","","","","","","","null","red_blue_mix","8","[""images/Red_Triangle.png"",""images/Blue_Triangle.png"",""images/Blue_Circle.png""]","true","[[153,3],[5,161],[216,210]]","true",""
"visual-search-circle","170","2.2.0","757335","79186","visual_search_trial","520","","j","","","","","","","","","","null","red_circle","8","[""images/Red_Circle.png"",""images/Red_Circle.png"",""images/Red_Circle.png"",""images/Red_Circle.png"",""images/Red_Circle.png"",""images/Red_Circle.png"",""images/Red_Circle.png"",""images/Red_Circle.png"",""images/Red_Circle.png""]","true","[[238,72],[177,11],[92,4],[22,53],[0,135],[36,213],[114,249],[196,227],[245,157]]","false",""
"visual-search-circle","171","2.2.0","759415","79186","visual_search_trial","576","","f","","","","","","","","","","null","blue_triangle","8","[""images/Red_Triangle.png"",""images/Blue_Triangle.png"",""images/Blue_Triangle.png"",""images/Blue_Triangle.png"",""images/Blue_Triangle.png"",""images/Blue_Triangle.png"",""images/Blue_Triangle.png"",""images/Blue_Triangle.png"",""images/Blue_Triangle.png""]","true","[[249,135],[227,53],[157,4],[72,11],[11,72],[4,157],[53,227],[135,249],[213,213]]","true",""
"visual-search-circle","172","2.2.0","761631","79186","visual_search_trial","714","","j","","","","","","","","","","null","red_blue_mix","8","[""images/Blue_Triangle.png"",""images/Red_Circle.png"",""images/Blue_Circle.png"",""images/Blue_Triangle.png"",""images/Blue_Circle.png"",""images/Red_Circle.png"",""images/Blue_Triangle.png"",""images/Red_Circle.png"",""images/Blue_Triangle.png""]","true","[[189,17],[105,1],[30,42],[0,122],[27,203],[101,247],[185,234],[241,169],[243,84]]","false",""
"visual-search-circle","173","2.2.0","764008","79186","visual_search_trial","875","","j","","","","","","","","","","null","blue_triangle","8","[""images/Blue_Triangle.png"",""images/Blue_Triangle.png"",""images/Blue_Triangle.png"",""images/Blue_Triangle.png"",""images/Blue_Triangle.png"",""images/Blue_Triangle.png""]","true","[[94,246],[214,211],[245,90],[155,3],[35,38],[4,159]]","false",""
"visual-search-circle","174","2.2.0","766597","79186","visual_search_trial","1085","","j","","","","","","","","","","null","red_blue_mix","8","[""images/Red_Circle.png"",""images/Blue_Triangle.png"",""images/Blue_Triangle.png"",""images/Blue_Triangle.png"",""images/Red_Circle.png"",""images/Blue_Triangle.png""]","true","[[249,118],[181,13],[56,20],[0,131],[68,236],[193,229]]","false",""
"visual-search-circle","175","2.2.0","768688","79186","visual_search_trial","588","","j","","","","","","","","","","null","blue_triangle","8","[""images/Blue_Triangle.png"",""images/Blue_Triangle.png"",""images/Blue_Triangle.png""]","true","[[96,3],[33,210],[244,161]]","false",""
"visual-search-circle","176","2.2.0","770892","79186","visual_search_trial","701","","f","","","","","","","","","","null","red_circle","8","[""images/Red_Triangle.png"",""images/Red_Circle.png"",""images/Red_Circle.png"",""images/Red_Circle.png"",""images/Red_Circle.png"",""images/Red_Circle.png""]","true","[[246,94],[159,4],[38,35],[3,155],[90,245],[211,214]]","true",""
"visual-search-circle","177","2.2.0","772898","79186","visual_search_trial","503","","j","","","","","","","","","","null","blue_triangle","8","[""images/Blue_Triangle.png"",""images/Blue_Triangle.png"",""images/Blue_Triangle.png"",""images/Blue_Triangle.png"",""images/Blue_Triangle.png"",""images/Blue_Triangle.png"",""images/Blue_Triangle.png"",""images/Blue_Triangle.png"",""images/Blue_Triangle.png""]","true","[[157,245],[227,196],[249,114],[213,36],[135,0],[53,22],[4,92],[11,177],[72,238]]","false",""
"visual-search-circle","178","2.2.0","775291","79186","visual_search_trial","890","","j","","","","","","","","","","null","red_blue_mix","8","[""images/Red_Circle.png"",""images/Blue_Circle.png"",""images/Blue_Circle.png""]","true","[[2,150],[208,217],[163,6]]","false",""
"visual-search-circle","179","2.2.0","777465","79186","visual_search_trial","670","","f","","","","","","","","","","null","red_circle","8","[""images/Red_Triangle.png"",""images/Red_Circle.png"",""images/Red_Circle.png"",""images/Red_Circle.png"",""images/Red_Circle.png"",""images/Red_Circle.png"",""images/Red_Circle.png"",""images/Red_Circle.png"",""images/Red_Circle.png""]","true","[[189,232],[243,165],[241,80],[185,15],[101,2],[27,46],[0,127],[30,207],[105,248]]","true",""
"visual-search-circle","180","2.2.0","780724","79186","visual_search_trial","1755","","f","","","","","","","","","","null","blue_triangle","8","[""images/Red_Triangle.png"",""images/Blue_Triangle.png"",""images/Blue_Triangle.png"",""images/Blue_Triangle.png"",""images/Blue_Triangle.png"",""images/Blue_Triangle.png""]","true","[[72,11],[0,114],[53,227],[177,238],[249,135],[196,22]]","true",""
"visual-search-circle","181","2.2.0","783119","79186","visual_search_trial","893","","f","","","","","","","","","","null","blue_triangle","9","[""images/Red_Triangle.png"",""images/Blue_Triangle.png"",""images/Blue_Triangle.png""]","true","[[6,86],[150,247],[217,41]]","true",""
"visual-search-circle","182","2.2.0","785139","79186","visual_search_trial","517","","j","","","","","","","","","","null","red_blue_mix","9","[""images/Blue_Circle.png"",""images/Blue_Triangle.png"",""images/Blue_Circle.png""]","true","[[109,249],[240,76],[25,49]]","false",""
"visual-search-circle","183","2.2.0","787327","79186","visual_search_trial","685","","f","","","","","","","","","","null","red_circle","9","[""images/Red_Triangle.png"",""images/Red_Circle.png"",""images/Red_Circle.png""]","true","[[211,35],[3,94],[159,245]]","true",""
"visual-search-circle","184","2.2.0","789611","79186","visual_search_trial","779","","f","","","","","","","","","","null","blue_triangle","9","[""images/Red_Triangle.png"",""images/Blue_Triangle.png"",""images/Blue_Triangle.png"",""images/Blue_Triangle.png"",""images/Blue_Triangle.png"",""images/Blue_Triangle.png"",""images/Blue_Triangle.png"",""images/Blue_Triangle.png"",""images/Blue_Triangle.png""]","true","[[187,16],[103,1],[29,44],[0,125],[29,205],[103,248],[187,233],[242,167],[242,82]]","true",""
"visual-search-circle","185","2.2.0","791723","79186","visual_search_trial","608","","f","","","","","","","","","","null","red_blue_mix","9","[""images/Red_Triangle.png"",""images/Red_Circle.png"",""images/Red_Circle.png"",""images/Red_Circle.png"",""images/Blue_Triangle.png"",""images/Blue_Triangle.png"",""images/Blue_Triangle.png"",""images/Blue_Circle.png"",""images/Blue_Circle.png""]","true","[[4,157],[53,227],[135,249],[213,213],[249,135],[227,53],[157,4],[72,11],[11,72]]","true",""
"visual-search-circle","186","2.2.0","794062","79186","visual_search_trial","835","","j","","","","","","","","","","null","red_circle","9","[""images/Red_Circle.png"",""images/Red_Circle.png"",""images/Red_Circle.png"",""images/Red_Circle.png"",""images/Red_Circle.png"",""images/Red_Circle.png""]","true","[[41,32],[2,150],[86,243],[208,217],[247,99],[163,6]]","false",""
"visual-search-circle","187","2.2.0","796337","79186","visual_search_trial","772","","f","","","","","","","","","","null","blue_triangle","9","[""images/Red_Triangle.png"",""images/Blue_Triangle.png"",""images/Blue_Triangle.png"",""images/Blue_Triangle.png"",""images/Blue_Triangle.png"",""images/Blue_Triangle.png""]","true","[[165,6],[42,30],[2,148],[84,243],[207,219],[247,101]]","true",""
"visual-search-circle","188","2.2.0","798343","79186","visual_search_trial","502","","f","","","","","","","","","","null","red_blue_mix","9","[""images/Red_Triangle.png"",""images/Blue_Circle.png"",""images/Red_Circle.png"",""images/Red_Circle.png"",""images/Red_Circle.png"",""images/Red_Circle.png""]","true","[[203,27],[80,8],[1,105],[46,222],[169,241],[248,144]]","true",""
"visual-search-circle","189","2.2.0","800434","79186","visual_search_trial","589","","j","","","","","","","","","","null","blue_triangle","9","[""images/Blue_Triangle.png"",""images/Blue_Triangle.png"",""images/Blue_Triangle.png"",""images/Blue_Triangle.png"",""images/Blue_Triangle.png"",""images/Blue_Triangle.png""]","true","[[235,183],[231,58],[120,0],[14,66],[18,191],[129,249]]","false",""
"visual-search-circle","190","2.2.0","802578","79186","visual_search_trial","641","","f","","","","","","","","","","null","red_circle","9","[""images/Red_Triangle.png"",""images/Red_Circle.png"",""images/Red_Circle.png"",""images/Red_Circle.png"",""images/Red_Circle.png"",""images/Red_Circle.png""]","true","[[3,94],[38,214],[159,245],[246,155],[211,35],[90,4]]","true",""
"visual-search-circle","191","2.2.0","804583","79186","visual_search_trial","502","","j","","","","","","","","","","null","blue_triangle","9","[""images/Blue_Triangle.png"",""images/Blue_Triangle.png"",""images/Blue_Triangle.png""]","true","[[245,90],[35,38],[94,246]]","false",""
"visual-search-circle","192","2.2.0","806646","79186","visual_search_trial","560","","j","","","","","","","","","","null","red_circle","9","[""images/Red_Circle.png"",""images/Red_Circle.png"",""images/Red_Circle.png"",""images/Red_Circle.png"",""images/Red_Circle.png"",""images/Red_Circle.png"",""images/Red_Circle.png"",""images/Red_Circle.png"",""images/Red_Circle.png""]","true","[[232,189],[248,105],[207,30],[127,0],[46,27],[2,101],[15,185],[80,241],[165,243]]","false",""
"visual-search-circle","193","2.2.0","810320","79186","visual_search_trial","2171","","j","","","","","","","","","","null","red_blue_mix","9","[""images/Red_Circle.png"",""images/Red_Circle.png"",""images/Red_Circle.png"",""images/Red_Circle.png"",""images/Blue_Triangle.png"",""images/Blue_Circle.png"",""images/Blue_Circle.png"",""images/Red_Circle.png"",""images/Red_Circle.png""]","true","[[148,2],[64,15],[8,80],[6,165],[60,232],[144,248],[219,207],[249,127],[222,46]]","false",""
"visual-search-circle","194","2.2.0","812466","79186","visual_search_trial","643","","f","","","","","","","","","","null","red_circle","9","[""images/Red_Triangle.png"",""images/Red_Circle.png"",""images/Red_Circle.png"",""images/Red_Circle.png"",""images/Red_Circle.png"",""images/Red_Circle.png"",""images/Red_Circle.png"",""images/Red_Circle.png"",""images/Red_Circle.png""]","true","[[33,39],[0,118],[25,200],[96,246],[181,236],[240,173],[244,88],[193,20],[109,0]]","true",""
"visual-search-circle","195","2.2.0","814690","79186","visual_search_trial","720","","j","","","","","","","","","","null","red_blue_mix","9","[""images/Red_Circle.png"",""images/Blue_Triangle.png"",""images/Blue_Triangle.png"",""images/Blue_Circle.png"",""images/Blue_Circle.png"",""images/Red_Circle.png""]","true","[[179,237],[249,133],[194,21],[70,12],[0,116],[55,228]]","false",""
"visual-search-circle","196","2.2.0","816889","79186","visual_search_trial","696","","j","","","","","","","","","","null","red_circle","9","[""images/Red_Circle.png"",""images/Red_Circle.png"",""images/Red_Circle.png""]","true","[[82,242],[248,103],[44,29]]","false",""
"visual-search-circle","197","2.2.0","818908","79186","visual_search_trial","514","","j","","","","","","","","","","null","blue_triangle","9","[""images/Blue_Triangle.png"",""images/Blue_Triangle.png"",""images/Blue_Triangle.png"",""images/Blue_Triangle.png"",""images/Blue_Triangle.png"",""images/Blue_Triangle.png"",""images/Blue_Triangle.png"",""images/Blue_Triangle.png"",""images/Blue_Triangle.png""]","true","[[246,94],[198,23],[116,0],[38,35],[0,111],[21,194],[90,245],[175,239],[237,179]]","false",""
"visual-search-circle","198","2.2.0","821053","79186","visual_search_trial","643","","f","","","","","","","","","","null","red_blue_mix","9","[""images/Red_Triangle.png"",""images/Blue_Circle.png"",""images/Blue_Circle.png""]","true","[[76,240],[249,109],[49,25]]","true",""
"html-keyboard-response","199","2.1.0","1137967","79186","break","316926","<p>Great job so far! Please rest for a few seconds before continuing.</p>
                 <p>Press the <strong>O</strong> key on your keyboard to continue.</p>","o","","","","","","","","","","","","","","","","","O"
"visual-search-circle","200","2.2.0","1141817","79186","visual_search_trial","2343","","j","","","","","","","","","","null","red_blue_mix","10","[""images/Blue_Triangle.png"",""images/Blue_Circle.png"",""images/Blue_Circle.png"",""images/Red_Circle.png"",""images/Blue_Triangle.png"",""images/Blue_Triangle.png"",""images/Blue_Triangle.png"",""images/Blue_Triangle.png"",""images/Blue_Circle.png""]","true","[[249,129],[223,48],[150,2],[66,14],[9,78],[6,163],[58,231],[142,248],[217,208]]","false",""
"visual-search-circle","201","2.2.0","1144080","79186","visual_search_trial","759","","j","","","","","","","","","","null","blue_triangle","10","[""images/Blue_Triangle.png"",""images/Blue_Triangle.png"",""images/Blue_Triangle.png"",""images/Blue_Triangle.png"",""images/Blue_Triangle.png"",""images/Blue_Triangle.png"",""images/Blue_Triangle.png"",""images/Blue_Triangle.png"",""images/Blue_Triangle.png""]","true","[[8,169],[64,234],[148,247],[222,203],[249,122],[219,42],[144,1],[60,17],[6,84]]","false",""
"visual-search-circle","202","2.2.0","1146958","79186","visual_search_trial","1374","","f","","","","","","","","","","null","red_blue_mix","10","[""images/Red_Triangle.png"",""images/Blue_Circle.png"",""images/Blue_Circle.png"",""images/Red_Circle.png"",""images/Blue_Triangle.png"",""images/Blue_Circle.png"",""images/Red_Circle.png"",""images/Blue_Circle.png"",""images/Blue_Circle.png""]","true","[[220,205],[250,125],[220,44],[146,1],[62,16],[7,82],[7,167],[62,233],[146,248]]","true",""
"visual-search-circle","203","2.2.0","1149245","79186","visual_search_trial","784","","f","","","","","","","","","","null","blue_triangle","10","[""images/Red_Triangle.png"",""images/Blue_Triangle.png"",""images/Blue_Triangle.png"",""images/Blue_Triangle.png"",""images/Blue_Triangle.png"",""images/Blue_Triangle.png"",""images/Blue_Triangle.png"",""images/Blue_Triangle.png"",""images/Blue_Triangle.png""]","true","[[238,177],[245,92],[196,22],[114,0],[36,36],[0,114],[22,196],[92,245],[177,238]]","true",""
"visual-search-circle","204","2.2.0","1151319","79186","visual_search_trial","571","","j","","","","","","","","","","null","red_circle","10","[""images/Red_Circle.png"",""images/Red_Circle.png"",""images/Red_Circle.png""]","true","[[39,216],[246,153],[88,5]]","false",""
"visual-search-circle","205","2.2.0","1153368","79186","visual_search_trial","545","","f","","","","","","","","","","null","blue_triangle","10","[""images/Red_Triangle.png"",""images/Blue_Triangle.png"",""images/Blue_Triangle.png""]","true","[[201,223],[171,9],[1,142]]","true",""
"visual-search-circle","206","2.2.0","1155554","79186","visual_search_trial","682","","f","","","","","","","","","","null","red_circle","10","[""images/Red_Triangle.png"",""images/Red_Circle.png"",""images/Red_Circle.png"",""images/Red_Circle.png"",""images/Red_Circle.png"",""images/Red_Circle.png"",""images/Red_Circle.png"",""images/Red_Circle.png"",""images/Red_Circle.png""]","true","[[0,120],[26,201],[99,247],[183,235],[240,171],[243,86],[191,18],[107,1],[32,41]]","true",""
"visual-search-circle","207","2.2.0","1157704","79186","visual_search_trial","647","","f","","","","","","","","","","null","blue_triangle","10","[""images/Red_Triangle.png"",""images/Blue_Triangle.png"",""images/Blue_Triangle.png"",""images/Blue_Triangle.png"",""images/Blue_Triangle.png"",""images/Blue_Triangle.png""]","true","[[233,62],[125,0],[16,62],[16,187],[125,250],[233,187]]","true",""
"visual-search-circle","208","2.2.0","1159875","79186","visual_search_trial","668","","f","","","","","","","","","","null","red_circle","10","[""images/Red_Triangle.png"",""images/Red_Circle.png"",""images/Red_Circle.png""]","true","[[42,30],[84,243],[247,101]]","true",""
"visual-search-circle","209","2.2.0","1161931","79186","visual_search_trial","553","","j","","","","","","","","","","null","blue_triangle","10","[""images/Blue_Triangle.png"",""images/Blue_Triangle.png"",""images/Blue_Triangle.png"",""images/Blue_Triangle.png"",""images/Blue_Triangle.png"",""images/Blue_Triangle.png""]","true","[[249,109],[173,9],[49,25],[0,140],[76,240],[200,224]]","false",""
"visual-search-circle","210","2.2.0","1164005","79186","visual_search_trial","570","","f","","","","","","","","","","null","red_circle","10","[""images/Red_Triangle.png"",""images/Red_Circle.png"",""images/Red_Circle.png"",""images/Red_Circle.png"",""images/Red_Circle.png"",""images/Red_Circle.png""]","true","[[150,2],[32,41],[6,163],[99,247],[217,208],[243,86]]","true",""
"visual-search-circle","211","2.2.0","1166536","79186","visual_search_trial","1028","","j","","","","","","","","","","null","red_blue_mix","10","[""images/Blue_Triangle.png"",""images/Blue_Circle.png"",""images/Red_Circle.png""]","true","[[216,210],[153,3],[5,161]]","false",""
"visual-search-circle","212","2.2.0","1168700","79186","visual_search_trial","660","","j","","","","","","","","","","null","red_circle","10","[""images/Red_Circle.png"",""images/Red_Circle.png"",""images/Red_Circle.png"",""images/Red_Circle.png"",""images/Red_Circle.png"",""images/Red_Circle.png"",""images/Red_Circle.png"",""images/Red_Circle.png"",""images/Red_Circle.png""]","true","[[32,41],[0,120],[26,201],[99,247],[183,235],[240,171],[243,86],[191,18],[107,1]]","false",""
"visual-search-circle","213","2.2.0","1171052","79186","visual_search_trial","848","","f","","","","","","","","","","null","red_blue_mix","10","[""images/Red_Triangle.png"",""images/Red_Circle.png"",""images/Blue_Circle.png"",""images/Red_Circle.png"",""images/Blue_Triangle.png"",""images/Blue_Triangle.png""]","true","[[39,33],[3,153],[88,244],[210,216],[246,96],[161,5]]","true",""
"visual-search-circle","214","2.2.0","1173184","79186","visual_search_trial","629","","j","","","","","","","","","","null","blue_triangle","10","[""images/Blue_Triangle.png"",""images/Blue_Triangle.png"",""images/Blue_Triangle.png""]","true","[[246,155],[90,4],[38,214]]","false",""
"visual-search-circle","215","2.2.0","1175260","79186","visual_search_trial","573","","f","","","","","","","","","","null","red_blue_mix","10","[""images/Red_Triangle.png"",""images/Blue_Circle.png"",""images/Red_Circle.png""]","true","[[22,196],[238,177],[114,0]]","true",""
"visual-search-circle","216","2.2.0","1177258","79186","visual_search_trial","494","","j","","","","","","","","","","null","red_circle","10","[""images/Red_Circle.png"",""images/Red_Circle.png"",""images/Red_Circle.png"",""images/Red_Circle.png"",""images/Red_Circle.png"",""images/Red_Circle.png""]","true","[[10,74],[23,198],[138,249],[239,175],[226,51],[111,0]]","false",""
"visual-search-circle","217","2.2.0","1179289","79186","visual_search_trial","527","","j","","","","","","","","","","null","red_blue_mix","10","[""images/Blue_Triangle.png"",""images/Blue_Circle.png"",""images/Red_Circle.png"",""images/Blue_Triangle.png"",""images/Red_Circle.png"",""images/Red_Circle.png""]","true","[[125,250],[233,187],[233,62],[125,0],[16,62],[16,187]]","false",""
"visual-search-circle","218","2.2.0","1181310","79186","visual_search_trial","517","","f","","","","","","","","","","null","blue_triangle","11","[""images/Blue_Triangle.png"",""images/Blue_Triangle.png"",""images/Blue_Triangle.png"",""images/Blue_Triangle.png"",""images/Blue_Triangle.png"",""images/Blue_Triangle.png""]","false","[[146,248],[242,167],[220,44],[103,1],[7,82],[29,205]]","false",""
"visual-search-circle","219","2.2.0","1188295","79186","visual_search_trial","5482","","f","","","","","","","","","","null","red_blue_mix","11","[""images/Red_Triangle.png"",""images/Red_Circle.png"",""images/Blue_Circle.png"",""images/Red_Circle.png"",""images/Blue_Circle.png"",""images/Red_Circle.png"",""images/Blue_Triangle.png"",""images/Blue_Circle.png"",""images/Red_Circle.png""]","true","[[82,7],[16,62],[1,146],[44,220],[125,250],[205,220],[248,146],[233,62],[167,7]]","true",""
"visual-search-circle","220","2.2.0","1190403","79186","visual_search_trial","605","","f","","","","","","","","","","null","blue_triangle","11","[""images/Red_Triangle.png"",""images/Blue_Triangle.png"",""images/Blue_Triangle.png"",""images/Blue_Triangle.png"",""images/Blue_Triangle.png"",""images/Blue_Triangle.png"",""images/Blue_Triangle.png"",""images/Blue_Triangle.png"",""images/Blue_Triangle.png""]","true","[[12,70],[3,155],[51,226],[133,249],[211,214],[249,138],[228,55],[159,4],[74,10]]","true",""
"visual-search-circle","221","2.2.0","1192846","79186","visual_search_trial","937","","f","","","","","","","","","","null","red_circle","11","[""images/Red_Triangle.png"",""images/Red_Circle.png"",""images/Red_Circle.png"",""images/Red_Circle.png"",""images/Red_Circle.png"",""images/Red_Circle.png"",""images/Red_Circle.png"",""images/Red_Circle.png"",""images/Red_Circle.png""]","true","[[51,226],[133,249],[211,214],[249,138],[228,55],[159,4],[74,10],[12,70],[3,155]]","true",""
"visual-search-circle","222","2.2.0","1195311","79186","visual_search_trial","961","","j","","","","","","","","","","null","red_blue_mix","11","[""images/Red_Circle.png"",""images/Blue_Triangle.png"",""images/Red_Circle.png"",""images/Blue_Circle.png"",""images/Blue_Circle.png"",""images/Red_Circle.png""]","true","[[0,118],[56,229],[181,236],[249,131],[193,20],[68,13]]","false",""
"visual-search-circle","223","2.2.0","1197382","79186","visual_search_trial","566","","j","","","","","","","","","","null","red_circle","11","[""images/Red_Circle.png"",""images/Red_Circle.png"",""images/Red_Circle.png"",""images/Red_Circle.png"",""images/Red_Circle.png"",""images/Red_Circle.png""]","true","[[15,64],[17,189],[127,249],[234,185],[232,60],[122,0]]","false",""
"visual-search-circle","224","2.2.0","1199362","79186","visual_search_trial","475","","j","","","","","","","","","","null","blue_triangle","11","[""images/Blue_Triangle.png"",""images/Blue_Triangle.png"",""images/Blue_Triangle.png"",""images/Blue_Triangle.png"",""images/Blue_Triangle.png"",""images/Blue_Triangle.png"",""images/Blue_Triangle.png"",""images/Blue_Triangle.png"",""images/Blue_Triangle.png""]","true","[[244,161],[240,76],[181,13],[96,3],[25,49],[0,131],[33,210],[109,249],[193,229]]","false",""
"visual-search-circle","225","2.2.0","1201682","79186","visual_search_trial","816","","f","","","","","","","","","","null","red_blue_mix","11","[""images/Red_Triangle.png"",""images/Blue_Triangle.png"",""images/Blue_Circle.png"",""images/Blue_Circle.png"",""images/Blue_Triangle.png"",""images/Red_Circle.png""]","true","[[224,200],[240,76],[140,0],[25,49],[9,173],[109,249]]","true",""
"visual-search-circle","226","2.2.0","1203798","79186","visual_search_trial","613","","j","","","","","","","","","","null","red_circle","11","[""images/Red_Circle.png"",""images/Red_Circle.png"",""images/Red_Circle.png""]","true","[[175,239],[198,23],[0,111]]","false",""
"visual-search-circle","227","2.2.0","1206104","79186","visual_search_trial","802","","f","","","","","","","","","","null","blue_triangle","11","[""images/Red_Triangle.png"",""images/Blue_Triangle.png"",""images/Blue_Triangle.png"",""images/Blue_Triangle.png"",""images/Blue_Triangle.png"",""images/Blue_Triangle.png""]","true","[[129,0],[18,58],[14,183],[120,249],[231,191],[235,66]]","true",""
"visual-search-circle","228","2.2.0","1208106","79186","visual_search_trial","499","","f","","","","","","","","","","null","red_circle","11","[""images/Red_Triangle.png"",""images/Red_Circle.png"",""images/Red_Circle.png""]","true","[[127,249],[232,60],[15,64]]","true",""
"visual-search-circle","229","2.2.0","1210193","79186","visual_search_trial","585","","j","","","","","","","","","","null","red_blue_mix","11","[""images/Blue_Circle.png"",""images/Blue_Triangle.png"",""images/Blue_Circle.png""]","true","[[232,60],[15,64],[127,249]]","false",""
"visual-search-circle","230","2.2.0","1212308","79186","visual_search_trial","613","","f","","","","","","","","","","null","red_circle","11","[""images/Red_Triangle.png"",""images/Red_Circle.png"",""images/Red_Circle.png"",""images/Red_Circle.png"",""images/Red_Circle.png"",""images/Red_Circle.png""]","true","[[239,175],[226,51],[111,0],[10,74],[23,198],[138,249]]","true",""
"visual-search-circle","231","2.2.0","1214331","79186","visual_search_trial","520","","j","","","","","","","","","","null","blue_triangle","11","[""images/Blue_Triangle.png"",""images/Blue_Triangle.png"",""images/Blue_Triangle.png""]","true","[[146,248],[220,44],[7,82]]","false",""
"visual-search-circle","232","2.2.0","1216340","79186","visual_search_trial","505","","f","","","","","","","","","","null","red_circle","11","[""images/Red_Circle.png"",""images/Red_Circle.png"",""images/Red_Circle.png"",""images/Red_Circle.png"",""images/Red_Circle.png"",""images/Red_Circle.png"",""images/Red_Circle.png"",""images/Red_Circle.png"",""images/Red_Circle.png""]","false","[[90,245],[175,239],[237,179],[246,94],[198,23],[116,0],[38,35],[0,111],[21,194]]","false",""
"visual-search-circle","233","2.2.0","1218441","79186","visual_search_trial","597","","f","","","","","","","","","","null","red_blue_mix","11","[""images/Red_Triangle.png"",""images/Red_Circle.png"",""images/Blue_Circle.png""]","true","[[205,29],[1,103],[167,242]]","true",""
"visual-search-circle","234","2.2.0","1220529","79186","visual_search_trial","585","","f","","","","","","","","","","null","blue_triangle","11","[""images/Red_Triangle.png"",""images/Blue_Triangle.png"",""images/Blue_Triangle.png""]","true","[[0,131],[193,229],[181,13]]","true",""
