"trial_type","trial_index","plugin_version","time_elapsed","sona_id","phase","rt","stimulus","response","consented","required_key","view_history","question_order","success","timeout","failed_images","failed_audio","failed_video","set_size","distractor_type","block","stimuli_list","correct","locations","target_present","break_key"
"pavlovia","0","null","997","79251","","","","","","","","","","","","","","","","","","","","",""
"html-button-response","1","2.1.0","4387","79251","informed_consent","3388","
    <div style=""max-width: 900px; margin: 0 auto; padding: 20px; text-align: left; line-height: 1.6;"">
      <h1 style=""text-align: center; color: #333; font-size: 24px; margin-bottom: 10px; font-weight: bold;"">
        INFORMED CONSENT INFORMATION
      </h1>
      <h2 style=""text-align: center; color: #333; font-size: 22px; margin-bottom: 20px; font-weight: bold;"">
        FOR RESEARCH PARTICIPATION
      </h2>
      
      <p style=""margin-bottom: 10px;""><strong>Study Title:</strong> The Effects of Mindfulness and Attention on Life Satisfaction and Memory</p>
      <p style=""margin-bottom: 10px;""><strong>Principal Investigator:</strong> Ella Bremmer</p>
      <p style=""margin-bottom: 10px;""><strong>Co-Principal Investigator:</strong> Dr. Gregory Cox</p>
      <p style=""margin-bottom: 20px;""><strong>IRB Study Number:</strong></p>

      <p style=""margin-bottom: 15px;"">I am a student at the University at Albany, in the Department of Psychology. I am planning to conduct a research study, which I invite you to take part in.</p>
      
      <p style=""margin-bottom: 25px;"">This form has important information about the reasons for doing this study, what we will ask you to do, and the way we would like to use the information we collect about you.</p>

      <h3 style=""color: #333; font-size: 18px; margin-top: 25px; margin-bottom: 10px; font-weight: bold;"">
        Why are you doing this study?
      </h3>
      <p style=""margin-bottom: 15px;"">You are being asked to participate in a research study that aims to understand if there is a relationship between mindfulness, the ability to pay attention, and life satisfaction.</p>
      
      <p style=""margin-bottom: 25px;"">The purpose of this study is to investigate if having better control over one's attention influences overall life satisfaction. Your participation will help us better understand if mindfulness and attention do have a significant effect on life satisfaction (i.e., how people feel about their lives overall). Then you will be asked to perform a conjunction visual search task to test your capacity to direct your attention over a sustained period.</p>

      <h3 style=""color: #333; font-size: 18px; margin-top: 25px; margin-bottom: 10px; font-weight: bold;"">
        Why am I eligible to participate in this study?
      </h3>
      <p style=""margin-bottom: 25px;"">You are eligible to participate because you are a student at UAlbany, are at least 18 years old, and are proficient in English.</p>

      <h3 style=""color: #333; font-size: 18px; margin-top: 25px; margin-bottom: 10px; font-weight: bold;"">
        What will I do if I choose to be in this study?
      </h3>
      <p style=""margin-bottom: 10px;"">If you choose to take part in our study, you will do the following:</p>
      <p style=""margin-bottom: 8px; margin-left: 20px;"">1. Read and agree to the informed consent.</p>
      <p style=""margin-bottom: 8px; margin-left: 40px;"">a. If you choose not to agree to the informed consent, you will be taken back to the SONA site.</p>
      <p style=""margin-bottom: 8px; margin-left: 20px;"">2. Complete a demographic questionnaire that asks about your age, English proficiency, gender, and race.</p>
      <p style=""margin-bottom: 8px; margin-left: 20px;"">3. Read instructions for the visual search task, which asks you to indicate if a target (a red triangle) is present among various other colored shapes. You should press the ""F"" key if a red triangle is present, or the ""J"" key if the target is absent.</p>
      <p style=""margin-bottom: 8px; margin-left: 20px;"">4. You will be asked to respond to 270 visual search trials, whith the opportunity to take short breaks as you go</p>
      <p style=""margin-bottom: 8px; margin-left: 20px;"">5. You will complete the Mindfulness Attention Awareness Scale (MAAS), the Satisfaction With Life Scale (SWLS), and the Big Five Inventory.</p>
      <p style=""margin-bottom: 25px; margin-left: 20px;"">6.	After all questionnaires are completed, participants will be thanked for their time and will be provided the study debriefing. Following the debriefing, you will be sent back to the SONA research site.</p>

      <h3 style=""color: #333; font-size: 18px; margin-top: 25px; margin-bottom: 10px; font-weight: bold;"">
        For how long will I participate?
      </h3>
      <p style=""margin-bottom: 25px;"">This study is a single online session that you can complete on a computer. The study can be completed in less than 30 minutes but could require as long as 45 minutes to complete.</p>

      <h3 style=""color: #333; font-size: 18px; margin-top: 25px; margin-bottom: 10px; font-weight: bold;"">
        Where will I need to go to participate?
      </h3>
      <p style=""margin-bottom: 25px;"">All study procedures will take place online and can be completed wherever you have internet connection.</p>

      <h3 style=""color: #333; font-size: 18px; margin-top: 25px; margin-bottom: 10px; font-weight: bold;"">
        Are there any costs I should be aware of?
      </h3>
      <p style=""margin-bottom: 25px;"">Participation is not expected to incur cost to participants. Free internet access is available anywhere on campus and in the university library.</p>

      <h3 style=""color: #333; font-size: 18px; margin-top: 25px; margin-bottom: 10px; font-weight: bold;"">
        What are the possible risks or discomforts?
      </h3>
      <p style=""margin-bottom: 15px;"">As with all research, there is a chance that confidentiality of the information we collect from you could be breached – we will take steps to minimize this risk, as discussed in more detail below.</p>
      
      <p style=""margin-bottom: 25px;"">The risks associated with participating in this study are minimal; however, you may experience mild discomfort when reflecting on your mindfulness or life satisfaction when answering questionnaires in the study. To help minimize this, you can withdraw from the study at any time without any consequences. The study will take place online, and you will have the opportunity to take breaks while completing the survey to reduce the risk of eye strain associated with the use of electronic devices.</p>

      <h3 style=""color: #333; font-size: 18px; margin-top: 25px; margin-bottom: 10px; font-weight: bold;"">
        What are the possible benefits for me or others?
      </h3>
      <p style=""margin-bottom: 25px;"">While there are no direct personal benefits to participants of this study, you may find value in reflecting on your mindfulness, attention, and its impact on life satisfaction by completing this survey. The data you contribute may help advance society's understanding of how mindfulness and attention relate to overall well-being, potentially informing future programs or interventions aimed at improving student mental health, attention, and life satisfaction.</p>

      <h3 style=""color: #333; font-size: 18px; margin-top: 25px; margin-bottom: 10px; font-weight: bold;"">
        Will I receive compensation for my participation?
      </h3>
      <p style=""margin-bottom: 25px;"">SONA partial class credit will be awarded via the Psychology Department SONA research pool after you complete the survey in its entirety. Participants who withdraw before completing the survey will not receive partial credit. You will not receive monetary compensation for your participation in this study.</p>

      <h3 style=""color: #333; font-size: 18px; margin-top: 25px; margin-bottom: 10px; font-weight: bold;"">
        How will you protect the information you collect about me, and how will that information be shared?
      </h3>
      <p style=""margin-bottom: 15px;"">Results of this study may be used in publications and presentations. Your data will be handled as confidentially as possible, and no identifiable information will be collected to link your data back to you. If results of this study are published or presented, only de-identified summaries of data will be used.</p>
      
      <p style=""margin-bottom: 25px;"">To minimize the risks to confidentiality, all data will be collected anonymously via Pavlovia.org which uses encryption to protect information (https://pavlovia.org/docs/home/ethics). Only the student researcher (Ella Bremmer), mentor (Pierce Johnson), and faculty advisor (Gregory Cox) will have password-protected access to the data. Data will be stored on secure, university approved computers.</p>

      <h3 style=""color: #333; font-size: 18px; margin-top: 25px; margin-bottom: 10px; font-weight: bold;"">
        Will my data be used in future research?
      </h3>
      <p style=""margin-bottom: 25px;"">No personal identifiers will be collected in the data you provide us. Data will not be used in future research, and will be deleted after the required retention period.</p>

      <h3 style=""color: #333; font-size: 18px; margin-top: 25px; margin-bottom: 10px; font-weight: bold;"">
        What are my rights as a research participant?
      </h3>
      <p style=""margin-bottom: 15px;"">Participation in this study is voluntary. You do not have to answer any question you do not want to answer. If at any time and for any reason, you would prefer not to participate in this study, please feel free not to. If at any time you would like to stop participating, you are welcome to stop. You can take a break or stop altogether. You may withdraw from this study at any time, and you will not be penalized in any way for deciding to stop participation.</p>
      
      <p style=""margin-bottom: 25px;"">If you decide to withdraw from this study, any information collected from you before withdrawing will not be used, and your data will be deleted.</p>

      <h3 style=""color: #333; font-size: 18px; margin-top: 25px; margin-bottom: 10px; font-weight: bold;"">
        What if I am a University at Albany student or employee?
      </h3>
      <p style=""margin-bottom: 25px;"">You may choose not to participate or to stop participating in this research at any time. This will not affect your class standing, grades, employment, or any other aspects of your relationship with the University at Albany.</p>

      <h3 style=""color: #333; font-size: 18px; margin-top: 25px; margin-bottom: 10px; font-weight: bold;"">
        Who can I contact if I have questions or concerns about this research study?
      </h3>
      <p style=""margin-bottom: 15px;"">If you have questions, please feel free to stop and email the investigator, Ella Bremmer (ebremmer@albany.edu) or advisors, Pierce Johnson (pjohnson4@albany.edu) and Dr. Greg Cox (gecox@albany.edu). If you have questions later, you may also contact the researchers.</p>
      
      <p style=""margin-bottom: 10px;"">If you have any questions about your rights as a participant in this research, you can contact the following office at the University at Albany:</p>
      
      <p style=""margin-bottom: 5px; margin-left: 20px;"">Institutional Review Board</p>
      <p style=""margin-bottom: 5px; margin-left: 20px;"">University at Albany</p>
      <p style=""margin-bottom: 5px; margin-left: 20px;"">Office of Regulatory and Research Compliance</p>
      <p style=""margin-bottom: 5px; margin-left: 20px;"">1400 Washington Ave, Biology 227</p>
      <p style=""margin-bottom: 5px; margin-left: 20px;"">Albany, NY 12222</p>
      <p style=""margin-bottom: 5px; margin-left: 20px;"">Phone: 1-866-857-5459</p>
      <p style=""margin-bottom: 25px; margin-left: 20px;"">Email: rco@albany.edu</p>

      <h3 style=""color: #333; font-size: 18px; margin-top: 30px; margin-bottom: 10px; font-weight: bold;"">
        Consent
      </h3>
      <p style=""margin-bottom: 20px;"">I have read this form and the research study has been explained to me. I have been given the opportunity to ask questions and my questions have been answered. If I have additional questions, I have been told whom to contact. I agree to participate in the research study described above. I understand that I have the opportunity to download and save a copy of this form for my records.</p>

      <div style=""background-color: #f9f9f9; border: 2px solid #4CAF50; border-radius: 5px; padding: 20px; margin-top: 20px; margin-bottom: 20px;"">
        <p style=""margin-bottom: 15px; font-weight: bold;"">To save a copy of this consent form for your records, press Ctrl+P (Windows/Linux) or Cmd+P (Mac) and select ""Save as PDF"".</p>
        <p style=""margin-bottom: 0; font-weight: bold;"">By clicking ""I Agree"" below, I confirm that I agree to participate in the research study described above, and that doing so serves as my written signature consenting to take part in the study.</p>
      </div>
    </div>
  ","0","true","","","","","","","","","","","","","","","",""
"instructions","3","2.1.0","6324","79251","intro_instructions","1937","","","","j","[{""page_index"":0,""viewing_time"":1936}]","","","","","","","","","","","","","",""
"html-keyboard-response","4","2.1.0","8326","79251","intermediate_slide_demo","null","<p style=""font-size:4vw"">Demographic Questionnaire</p>","null","","","","","","","","","","","","","","","","",""
"survey-multi-choice","5","2.1.0","13237","79251","demographics_english","4909","","{""english"":""Strongly agree""}","","","","[0]","","","","","","","","","","","","",""
"survey-text","7","2.1.0","19654","79251","demographics_age","6415","","{""age"":""\""18\""""}","","","","","","","","","","","","","","","","",""
"survey-multi-select","9","2.1.0","21370","79251","demographics_gender","1715","","{""gender"":[""Man""]}","","","","[0]","","","","","","","","","","","","",""
"survey-multi-choice","11","2.1.0","25286","79251","demographics_race","3915","","{""race"":""White or Caucasian""}","","","","[0]","","","","","","","","","","","","",""
"html-keyboard-response","12","2.1.0","27289","79251","intermediate_slide_VS","null","<p style=""font-size:4vw"">Visual Search Task</p>","null","","","","","","","","","","","","","","","","",""
"preload","13","2.1.0","27293","79251","image_preload","","","","","","","","true","false","[]","[]","[]","","","","","","","",""
"html-button-response","14","2.1.0","32253","79251","vs_instructions","4960","<p>On the following screens, you will see a series of colored shapes (triangles, squares, and circles) appear.</p>
    <p>Please Press 'F' if there <strong>is</strong> a red triangle among the shapes you see.</p>
    <p>Press 'J' if there is <strong>not</strong> a red triangle among the shapes you see.</p>","0","","","","","","","","","","","","","","","","",""
"visual-search-circle","15","2.2.0","34837","79251","visual_search_trial","1082","","j","","","","","","","","","","null","red_blue_mix","0","[""images/Blue_Circle.png"",""images/Blue_Triangle.png"",""images/Blue_Triangle.png""]","true","[[248,107],[48,26],[78,240]]","false",""
"visual-search-circle","16","2.2.0","37081","79251","visual_search_trial","741","","f","","","","","","","","","","null","red_circle","0","[""images/Red_Triangle.png"",""images/Red_Circle.png"",""images/Red_Circle.png"",""images/Red_Circle.png"",""images/Red_Circle.png"",""images/Red_Circle.png"",""images/Red_Circle.png"",""images/Red_Circle.png"",""images/Red_Circle.png""]","true","[[64,15],[8,80],[6,165],[60,232],[144,248],[219,207],[249,127],[222,46],[148,2]]","true",""
"visual-search-circle","17","2.2.0","39253","79251","visual_search_trial","669","","j","","","","","","","","","","null","blue_triangle","0","[""images/Blue_Triangle.png"",""images/Blue_Triangle.png"",""images/Blue_Triangle.png"",""images/Blue_Triangle.png"",""images/Blue_Triangle.png"",""images/Blue_Triangle.png""]","true","[[173,240],[249,140],[200,25],[76,9],[0,109],[49,224]]","false",""
"visual-search-circle","18","2.2.0","41626","79251","visual_search_trial","870","","j","","","","","","","","","","null","red_blue_mix","0","[""images/Blue_Triangle.png"",""images/Blue_Triangle.png"",""images/Blue_Circle.png"",""images/Blue_Circle.png"",""images/Red_Circle.png"",""images/Blue_Circle.png""]","true","[[217,208],[243,86],[150,2],[32,41],[6,163],[99,247]]","false",""
"visual-search-circle","19","2.2.0","43550","79251","visual_search_trial","421","","f","","","","","","","","","","null","blue_triangle","0","[""images/Red_Triangle.png"",""images/Blue_Triangle.png"",""images/Blue_Triangle.png"",""images/Blue_Triangle.png"",""images/Blue_Triangle.png"",""images/Blue_Triangle.png""]","true","[[131,0],[20,56],[13,181],[118,249],[229,193],[236,68]]","true",""
"visual-search-circle","20","2.2.0","45508","79251","visual_search_trial","456","","f","","","","","","","","","","null","red_circle","0","[""images/Red_Triangle.png"",""images/Red_Circle.png"",""images/Red_Circle.png"",""images/Red_Circle.png"",""images/Red_Circle.png"",""images/Red_Circle.png""]","true","[[1,107],[48,223],[171,240],[248,142],[201,26],[78,9]]","true",""
"visual-search-circle","21","2.2.0","47591","79251","visual_search_trial","581","","f","","","","","","","","","","null","blue_triangle","0","[""images/Red_Triangle.png"",""images/Blue_Triangle.png"",""images/Blue_Triangle.png""]","true","[[242,82],[29,44],[103,248]]","true",""
"visual-search-circle","22","2.2.0","50000","79251","visual_search_trial","904","","f","","","","","","","","","","null","red_blue_mix","0","[""images/Red_Triangle.png"",""images/Red_Circle.png"",""images/Blue_Triangle.png"",""images/Blue_Circle.png"",""images/Blue_Circle.png"",""images/Red_Circle.png""]","true","[[146,248],[242,167],[220,44],[103,1],[7,82],[29,205]]","true",""
"visual-search-circle","23","2.2.0","52071","79251","visual_search_trial","568","","f","","","","","","","","","","null","blue_triangle","0","[""images/Red_Triangle.png"",""images/Blue_Triangle.png"",""images/Blue_Triangle.png"",""images/Blue_Triangle.png"",""images/Blue_Triangle.png"",""images/Blue_Triangle.png"",""images/Blue_Triangle.png"",""images/Blue_Triangle.png"",""images/Blue_Triangle.png""]","true","[[109,249],[193,229],[244,161],[240,76],[181,13],[96,3],[25,49],[0,131],[33,210]]","true",""
"visual-search-circle","24","2.2.0","54170","79251","visual_search_trial","597","","f","","","","","","","","","","null","red_circle","0","[""images/Red_Triangle.png"",""images/Red_Circle.png"",""images/Red_Circle.png""]","true","[[229,56],[13,68],[131,249]]","true",""
"visual-search-circle","25","2.2.0","56269","79251","visual_search_trial","597","","j","","","","","","","","","","null","blue_triangle","0","[""images/Blue_Triangle.png"",""images/Blue_Triangle.png"",""images/Blue_Triangle.png""]","true","[[44,220],[248,146],[82,7]]","false",""
"visual-search-circle","26","2.2.0","58374","79251","visual_search_trial","602","","j","","","","","","","","","","null","red_circle","0","[""images/Red_Circle.png"",""images/Red_Circle.png"",""images/Red_Circle.png""]","true","[[247,99],[41,32],[86,243]]","false",""
"visual-search-circle","27","2.2.0","60524","79251","visual_search_trial","646","","f","","","","","","","","","","null","red_blue_mix","0","[""images/Red_Triangle.png"",""images/Blue_Circle.png"",""images/Blue_Circle.png"",""images/Blue_Circle.png"",""images/Blue_Triangle.png"",""images/Red_Circle.png"",""images/Blue_Triangle.png"",""images/Blue_Triangle.png"",""images/Red_Circle.png""]","true","[[241,80],[185,15],[101,2],[27,46],[0,127],[30,207],[105,248],[189,232],[243,165]]","true",""
"visual-search-circle","28","2.2.0","62814","79251","visual_search_trial","787","","j","","","","","","","","","","null","red_circle","0","[""images/Red_Circle.png"",""images/Red_Circle.png"",""images/Red_Circle.png"",""images/Red_Circle.png"",""images/Red_Circle.png"",""images/Red_Circle.png""]","true","[[208,32],[86,6],[2,99],[41,217],[163,243],[247,150]]","false",""
"visual-search-circle","29","2.2.0","65111","79251","visual_search_trial","795","","j","","","","","","","","","","null","blue_triangle","0","[""images/Blue_Triangle.png"",""images/Blue_Triangle.png"",""images/Blue_Triangle.png"",""images/Blue_Triangle.png"",""images/Blue_Triangle.png"",""images/Blue_Triangle.png"",""images/Blue_Triangle.png"",""images/Blue_Triangle.png"",""images/Blue_Triangle.png""]","true","[[189,17],[105,1],[30,42],[0,122],[27,203],[101,247],[185,234],[241,169],[243,84]]","false",""
"visual-search-circle","30","2.2.0","67464","79251","visual_search_trial","850","","f","","","","","","","","","","null","red_blue_mix","0","[""images/Red_Triangle.png"",""images/Blue_Triangle.png"",""images/Red_Circle.png""]","true","[[232,189],[127,0],[15,185]]","true",""
"visual-search-circle","31","2.2.0","69720","79251","visual_search_trial","753","","j","","","","","","","","","","null","red_circle","0","[""images/Red_Circle.png"",""images/Red_Circle.png"",""images/Red_Circle.png"",""images/Red_Circle.png"",""images/Red_Circle.png"",""images/Red_Circle.png"",""images/Red_Circle.png"",""images/Red_Circle.png"",""images/Red_Circle.png""]","true","[[232,60],[165,6],[80,8],[15,64],[2,148],[46,222],[127,249],[207,219],[248,144]]","false",""
"visual-search-circle","32","2.2.0","72299","79251","visual_search_trial","1077","","j","","","","","","","","","","null","red_blue_mix","0","[""images/Blue_Triangle.png"",""images/Blue_Circle.png"",""images/Blue_Circle.png"",""images/Blue_Circle.png"",""images/Blue_Triangle.png"",""images/Blue_Circle.png"",""images/Blue_Circle.png"",""images/Blue_Circle.png"",""images/Red_Circle.png""]","true","[[48,26],[2,99],[14,183],[78,240],[163,243],[231,191],[248,107],[208,32],[129,0]]","false",""
"visual-search-circle","33","2.2.0","74600","79251","visual_search_trial","798","","j","","","","","","","","","","null","red_circle","1","[""images/Red_Circle.png"",""images/Red_Circle.png"",""images/Red_Circle.png"",""images/Red_Circle.png"",""images/Red_Circle.png"",""images/Red_Circle.png""]","true","[[120,249],[231,191],[235,66],[129,0],[18,58],[14,183]]","false",""
"visual-search-circle","34","2.2.0","76739","79251","visual_search_trial","636","","f","","","","","","","","","","null","red_blue_mix","1","[""images/Red_Triangle.png"",""images/Red_Circle.png"",""images/Red_Circle.png"",""images/Blue_Circle.png"",""images/Red_Circle.png"",""images/Blue_Triangle.png""]","true","[[223,48],[107,1],[9,78],[26,201],[142,248],[240,171]]","true",""
"visual-search-circle","35","2.2.0","78793","79251","visual_search_trial","551","","j","","","","","","","","","","null","blue_triangle","1","[""images/Blue_Triangle.png"",""images/Blue_Triangle.png"",""images/Blue_Triangle.png""]","true","[[205,29],[1,103],[167,242]]","false",""
"visual-search-circle","36","2.2.0","81181","79251","visual_search_trial","884","","j","","","","","","","","","","null","red_circle","1","[""images/Red_Circle.png"",""images/Red_Circle.png"",""images/Red_Circle.png"",""images/Red_Circle.png"",""images/Red_Circle.png"",""images/Red_Circle.png"",""images/Red_Circle.png"",""images/Red_Circle.png"",""images/Red_Circle.png""]","true","[[5,161],[56,229],[140,249],[216,210],[249,131],[224,49],[153,3],[68,13],[9,76]]","false",""
"visual-search-circle","37","2.2.0","83211","79251","visual_search_trial","528","","f","","","","","","","","","","null","red_blue_mix","1","[""images/Red_Triangle.png"",""images/Red_Circle.png"",""images/Blue_Circle.png""]","true","[[135,249],[227,53],[11,72]]","true",""
"visual-search-circle","38","2.2.0","85141","79251","visual_search_trial","426","","f","","","","","","","","","","null","blue_triangle","1","[""images/Red_Triangle.png"",""images/Blue_Triangle.png"",""images/Blue_Triangle.png"",""images/Blue_Triangle.png"",""images/Blue_Triangle.png"",""images/Blue_Triangle.png""]","true","[[9,78],[26,201],[142,248],[240,171],[223,48],[107,1]]","true",""
"visual-search-circle","39","2.2.0","87500","79251","visual_search_trial","856","","f","","","","","","","","","","null","red_circle","1","[""images/Red_Triangle.png"",""images/Red_Circle.png"",""images/Red_Circle.png"",""images/Red_Circle.png"",""images/Red_Circle.png"",""images/Red_Circle.png""]","true","[[0,131],[68,236],[193,229],[249,118],[181,13],[56,20]]","true",""
"visual-search-circle","40","2.2.0","89570","79251","visual_search_trial","566","","f","","","","","","","","","","null","red_blue_mix","1","[""images/Red_Triangle.png"",""images/Blue_Triangle.png"",""images/Blue_Triangle.png"",""images/Red_Circle.png"",""images/Blue_Circle.png"",""images/Blue_Triangle.png"",""images/Blue_Triangle.png"",""images/Blue_Triangle.png"",""images/Red_Circle.png""]","true","[[243,163],[240,78],[183,14],[99,2],[26,48],[0,129],[32,208],[107,248],[191,231]]","true",""
"visual-search-circle","41","2.2.0","91719","79251","visual_search_trial","647","","j","","","","","","","","","","null","blue_triangle","1","[""images/Blue_Triangle.png"",""images/Blue_Triangle.png"",""images/Blue_Triangle.png"",""images/Blue_Triangle.png"",""images/Blue_Triangle.png"",""images/Blue_Triangle.png"",""images/Blue_Triangle.png"",""images/Blue_Triangle.png"",""images/Blue_Triangle.png""]","true","[[153,3],[68,13],[9,76],[5,161],[56,229],[140,249],[216,210],[249,131],[224,49]]","false",""
"visual-search-circle","42","2.2.0","94029","79251","visual_search_trial","807","","j","","","","","","","","","","null","red_circle","1","[""images/Red_Circle.png"",""images/Red_Circle.png"",""images/Red_Circle.png""]","true","[[118,249],[236,68],[20,56]]","false",""
"visual-search-circle","43","2.2.0","96367","79251","visual_search_trial","835","","j","","","","","","","","","","null","red_blue_mix","1","[""images/Blue_Triangle.png"",""images/Red_Circle.png"",""images/Red_Circle.png"",""images/Blue_Circle.png"",""images/Blue_Circle.png"",""images/Blue_Circle.png""]","true","[[11,72],[22,196],[135,249],[238,177],[227,53],[114,0]]","false",""
"visual-search-circle","44","2.2.0","98565","79251","visual_search_trial","696","","f","","","","","","","","","","null","blue_triangle","1","[""images/Red_Triangle.png"",""images/Blue_Triangle.png"",""images/Blue_Triangle.png""]","true","[[5,161],[216,210],[153,3]]","true",""
"visual-search-circle","45","2.2.0","100703","79251","visual_search_trial","635","","j","","","","","","","","","","null","red_blue_mix","1","[""images/Blue_Circle.png"",""images/Red_Circle.png"",""images/Red_Circle.png""]","true","[[238,72],[22,53],[114,249]]","false",""
"visual-search-circle","46","2.2.0","102696","79251","visual_search_trial","491","","f","","","","","","","","","","null","blue_triangle","1","[""images/Red_Triangle.png"",""images/Blue_Triangle.png"",""images/Blue_Triangle.png"",""images/Blue_Triangle.png"",""images/Blue_Triangle.png"",""images/Blue_Triangle.png"",""images/Blue_Triangle.png"",""images/Blue_Triangle.png"",""images/Blue_Triangle.png""]","true","[[227,53],[157,4],[72,11],[11,72],[4,157],[53,227],[135,249],[213,213],[249,135]]","true",""
"visual-search-circle","47","2.2.0","105203","79251","visual_search_trial","1004","","j","","","","","","","","","","null","red_blue_mix","1","[""images/Blue_Triangle.png"",""images/Red_Circle.png"",""images/Blue_Triangle.png"",""images/Red_Circle.png"",""images/Blue_Circle.png"",""images/Blue_Circle.png"",""images/Blue_Circle.png"",""images/Blue_Triangle.png"",""images/Red_Circle.png""]","true","[[122,249],[203,222],[247,148],[234,64],[169,8],[84,6],[17,60],[1,144],[42,219]]","false",""
"visual-search-circle","48","2.2.0","107355","79251","visual_search_trial","648","","f","","","","","","","","","","null","red_circle","1","[""images/Red_Triangle.png"",""images/Red_Circle.png"",""images/Red_Circle.png"",""images/Red_Circle.png"",""images/Red_Circle.png"",""images/Red_Circle.png"",""images/Red_Circle.png"",""images/Red_Circle.png"",""images/Red_Circle.png""]","true","[[167,7],[82,7],[16,62],[1,146],[44,220],[125,250],[205,220],[248,146],[233,62]]","true",""
"visual-search-circle","49","2.2.0","109461","79251","visual_search_trial","603","","j","","","","","","","","","","null","blue_triangle","1","[""images/Blue_Triangle.png"",""images/Blue_Triangle.png"",""images/Blue_Triangle.png"",""images/Blue_Triangle.png"",""images/Blue_Triangle.png"",""images/Blue_Triangle.png""]","true","[[90,4],[3,94],[38,214],[159,245],[246,155],[211,35]]","false",""
"visual-search-circle","50","2.2.0","111587","79251","visual_search_trial","623","","f","","","","","","","","","","null","red_circle","1","[""images/Red_Triangle.png"",""images/Red_Circle.png"",""images/Red_Circle.png""]","true","[[84,243],[247,101],[42,30]]","true",""
"html-keyboard-response","51","2.1.0","113267","79251","break","1680","<p>Great job so far! Please rest for a few seconds before continuing.</p>
                 <p>Press the <strong>E</strong> key on your keyboard to continue.</p>","e","","","","","","","","","","","","","","","","","E"
"visual-search-circle","52","2.2.0","115889","79251","visual_search_trial","1120","","j","","","","","","","","","","null","red_blue_mix","2","[""images/Blue_Circle.png"",""images/Red_Circle.png"",""images/Blue_Triangle.png""]","true","[[142,1],[9,171],[223,201]]","false",""
"visual-search-circle","53","2.2.0","117822","79251","visual_search_trial","430","","f","","","","","","","","","","null","red_circle","2","[""images/Red_Triangle.png"",""images/Red_Circle.png"",""images/Red_Circle.png"",""images/Red_Circle.png"",""images/Red_Circle.png"",""images/Red_Circle.png""]","true","[[64,15],[0,122],[60,232],[185,234],[249,127],[189,17]]","true",""
"visual-search-circle","54","2.2.0","119839","79251","visual_search_trial","514","","f","","","","","","","","","","null","blue_triangle","2","[""images/Red_Triangle.png"",""images/Blue_Triangle.png"",""images/Blue_Triangle.png"",""images/Blue_Triangle.png"",""images/Blue_Triangle.png"",""images/Blue_Triangle.png""]","true","[[229,56],[118,0],[13,68],[20,193],[131,249],[236,181]]","true",""
"visual-search-circle","55","2.2.0","121769","79251","visual_search_trial","428","","f","","","","","","","","","","null","red_circle","2","[""images/Red_Triangle.png"",""images/Red_Circle.png"",""images/Red_Circle.png"",""images/Red_Circle.png"",""images/Red_Circle.png"",""images/Red_Circle.png"",""images/Red_Circle.png"",""images/Red_Circle.png"",""images/Red_Circle.png""]","true","[[220,44],[146,1],[62,16],[7,82],[7,167],[62,233],[146,248],[220,205],[250,125]]","true",""
"visual-search-circle","56","2.2.0","123903","79251","visual_search_trial","631","","j","","","","","","","","","","null","blue_triangle","2","[""images/Blue_Triangle.png"",""images/Blue_Triangle.png"",""images/Blue_Triangle.png"",""images/Blue_Triangle.png"",""images/Blue_Triangle.png"",""images/Blue_Triangle.png""]","true","[[26,201],[142,248],[240,171],[223,48],[107,1],[9,78]]","false",""
"visual-search-circle","57","2.2.0","126007","79251","visual_search_trial","602","","f","","","","","","","","","","null","red_blue_mix","2","[""images/Red_Circle.png"",""images/Blue_Triangle.png"",""images/Red_Circle.png"",""images/Blue_Triangle.png"",""images/Red_Circle.png"",""images/Red_Circle.png"",""images/Blue_Circle.png"",""images/Blue_Triangle.png"",""images/Blue_Triangle.png""]","false","[[142,248],[217,208],[249,129],[223,48],[150,2],[66,14],[9,78],[6,163],[58,231]]","false",""
"visual-search-circle","58","2.2.0","127995","79251","visual_search_trial","486","","f","","","","","","","","","","null","red_circle","2","[""images/Red_Triangle.png"",""images/Red_Circle.png"",""images/Red_Circle.png""]","true","[[246,96],[39,33],[88,244]]","true",""
"visual-search-circle","59","2.2.0","130115","79251","visual_search_trial","615","","f","","","","","","","","","","null","red_blue_mix","2","[""images/Red_Triangle.png"",""images/Blue_Circle.png"",""images/Red_Circle.png"",""images/Red_Circle.png"",""images/Blue_Triangle.png"",""images/Blue_Circle.png"",""images/Red_Circle.png"",""images/Blue_Triangle.png"",""images/Blue_Circle.png""]","true","[[35,211],[111,249],[194,228],[245,159],[239,74],[179,12],[94,3],[23,51],[0,133]]","true",""
"visual-search-circle","60","2.2.0","132445","79251","visual_search_trial","828","","f","","","","","","","","","","null","blue_triangle","2","[""images/Red_Triangle.png"",""images/Blue_Triangle.png"",""images/Blue_Triangle.png""]","true","[[203,222],[169,8],[1,144]]","true",""
"visual-search-circle","61","2.2.0","135720","79251","visual_search_trial","1772","","j","","","","","","","","","","null","red_blue_mix","2","[""images/Blue_Triangle.png"",""images/Blue_Triangle.png"",""images/Blue_Triangle.png"",""images/Red_Circle.png"",""images/Blue_Triangle.png"",""images/Red_Circle.png""]","true","[[249,129],[191,18],[66,14],[0,120],[58,231],[183,235]]","false",""
"visual-search-circle","62","2.2.0","137631","79251","visual_search_trial","407","","f","","","","","","","","","","null","blue_triangle","2","[""images/Red_Triangle.png"",""images/Blue_Triangle.png"",""images/Blue_Triangle.png"",""images/Blue_Triangle.png"",""images/Blue_Triangle.png"",""images/Blue_Triangle.png"",""images/Blue_Triangle.png"",""images/Blue_Triangle.png"",""images/Blue_Triangle.png""]","true","[[173,9],[88,5],[20,56],[0,140],[39,216],[118,249],[200,224],[246,153],[236,68]]","true",""
"visual-search-circle","63","2.2.0","139792","79251","visual_search_trial","659","","j","","","","","","","","","","null","red_circle","2","[""images/Red_Circle.png"",""images/Red_Circle.png"",""images/Red_Circle.png""]","true","[[207,30],[2,101],[165,243]]","false",""
"visual-search-circle","64","2.2.0","141978","79251","visual_search_trial","684","","j","","","","","","","","","","null","blue_triangle","2","[""images/Blue_Triangle.png"",""images/Blue_Triangle.png"",""images/Blue_Triangle.png""]","true","[[118,0],[20,193],[236,181]]","false",""
"visual-search-circle","65","2.2.0","144007","79251","visual_search_trial","526","","f","","","","","","","","","","null","red_blue_mix","2","[""images/Red_Triangle.png"",""images/Blue_Circle.png"",""images/Blue_Circle.png""]","true","[[247,99],[41,32],[86,243]]","true",""
"visual-search-circle","66","2.2.0","146060","79251","visual_search_trial","550","","j","","","","","","","","","","null","red_circle","2","[""images/Red_Circle.png"",""images/Red_Circle.png"",""images/Red_Circle.png"",""images/Red_Circle.png"",""images/Red_Circle.png"",""images/Red_Circle.png""]","true","[[155,246],[245,159],[214,38],[94,3],[4,90],[35,211]]","false",""
"visual-search-circle","67","2.2.0","148120","79251","visual_search_trial","557","","f","","","","","","","","","","null","red_blue_mix","2","[""images/Red_Triangle.png"",""images/Red_Circle.png"",""images/Red_Circle.png"",""images/Blue_Triangle.png"",""images/Blue_Triangle.png"",""images/Red_Circle.png""]","true","[[12,179],[116,249],[228,194],[237,70],[133,0],[21,55]]","true",""
"visual-search-circle","68","2.2.0","150162","79251","visual_search_trial","540","","j","","","","","","","","","","null","red_circle","2","[""images/Red_Circle.png"",""images/Red_Circle.png"",""images/Red_Circle.png"",""images/Red_Circle.png"",""images/Red_Circle.png"",""images/Red_Circle.png"",""images/Red_Circle.png"",""images/Red_Circle.png"",""images/Red_Circle.png""]","true","[[114,249],[196,227],[245,157],[238,72],[177,11],[92,4],[22,53],[0,135],[36,213]]","false",""
"visual-search-circle","69","2.2.0","152147","79251","visual_search_trial","483","","j","","","","","","","","","","null","blue_triangle","2","[""images/Blue_Triangle.png"",""images/Blue_Triangle.png"",""images/Blue_Triangle.png"",""images/Blue_Triangle.png"",""images/Blue_Triangle.png"",""images/Blue_Triangle.png"",""images/Blue_Triangle.png"",""images/Blue_Triangle.png"",""images/Blue_Triangle.png""]","true","[[86,243],[171,240],[235,183],[247,99],[201,26],[120,0],[41,32],[1,107],[18,191]]","false",""
"visual-search-circle","70","2.2.0","154205","79251","visual_search_trial","554","","j","","","","","","","","","","null","blue_triangle","3","[""images/Blue_Triangle.png"",""images/Blue_Triangle.png"",""images/Blue_Triangle.png"",""images/Blue_Triangle.png"",""images/Blue_Triangle.png"",""images/Blue_Triangle.png""]","true","[[9,173],[109,249],[224,200],[240,76],[140,0],[25,49]]","false",""
"visual-search-circle","71","2.2.0","156127","79251","visual_search_trial","420","","f","","","","","","","","","","null","red_circle","3","[""images/Red_Triangle.png"",""images/Red_Circle.png"",""images/Red_Circle.png""]","true","[[240,78],[26,48],[107,248]]","true",""
"visual-search-circle","72","2.2.0","158141","79251","visual_search_trial","511","","j","","","","","","","","","","null","blue_triangle","3","[""images/Red_Triangle.png"",""images/Blue_Triangle.png"",""images/Blue_Triangle.png""]","false","[[247,99],[41,32],[86,243]]","true",""
"visual-search-circle","73","2.2.0","160280","79251","visual_search_trial","636","","f","","","","","","","","","","null","red_circle","3","[""images/Red_Triangle.png"",""images/Red_Circle.png"",""images/Red_Circle.png"",""images/Red_Circle.png"",""images/Red_Circle.png"",""images/Red_Circle.png"",""images/Red_Circle.png"",""images/Red_Circle.png"",""images/Red_Circle.png""]","true","[[33,39],[0,118],[25,200],[96,246],[181,236],[240,173],[244,88],[193,20],[109,0]]","true",""
"visual-search-circle","74","2.2.0","162333","79251","visual_search_trial","551","","j","","","","","","","","","","null","red_blue_mix","3","[""images/Blue_Circle.png"",""images/Blue_Triangle.png"",""images/Blue_Circle.png""]","true","[[249,120],[58,18],[66,235]]","false",""
"visual-search-circle","75","2.2.0","164420","79251","visual_search_trial","585","","f","","","","","","","","","","null","red_circle","3","[""images/Red_Triangle.png"",""images/Red_Circle.png"",""images/Red_Circle.png"",""images/Red_Circle.png"",""images/Red_Circle.png"",""images/Red_Circle.png""]","true","[[249,138],[198,23],[74,10],[0,111],[51,226],[175,239]]","true",""
"visual-search-circle","76","2.2.0","166703","79251","visual_search_trial","780","","j","","","","","","","","","","null","red_blue_mix","3","[""images/Blue_Triangle.png"",""images/Blue_Triangle.png"",""images/Red_Circle.png"",""images/Blue_Circle.png"",""images/Red_Circle.png"",""images/Blue_Circle.png""]","true","[[10,74],[23,198],[138,249],[239,175],[226,51],[111,0]]","false",""
"visual-search-circle","77","2.2.0","168793","79251","visual_search_trial","587","","f","","","","","","","","","","null","blue_triangle","3","[""images/Red_Triangle.png"",""images/Blue_Triangle.png"",""images/Blue_Triangle.png"",""images/Blue_Triangle.png"",""images/Blue_Triangle.png"",""images/Blue_Triangle.png""]","true","[[20,193],[131,249],[236,181],[229,56],[118,0],[13,68]]","true",""
"visual-search-circle","78","2.2.0","170906","79251","visual_search_trial","612","","f","","","","","","","","","","null","red_blue_mix","3","[""images/Red_Triangle.png"",""images/Red_Circle.png"",""images/Red_Circle.png""]","true","[[249,127],[64,15],[60,232]]","true",""
"visual-search-circle","79","2.2.0","173030","79251","visual_search_trial","620","","j","","","","","","","","","","null","red_circle","3","[""images/Red_Circle.png"",""images/Red_Circle.png"",""images/Red_Circle.png"",""images/Red_Circle.png"",""images/Red_Circle.png"",""images/Red_Circle.png"",""images/Red_Circle.png"",""images/Red_Circle.png"",""images/Red_Circle.png""]","true","[[249,138],[228,55],[159,4],[74,10],[12,70],[3,155],[51,226],[133,249],[211,214]]","false",""
"visual-search-circle","80","2.2.0","175678","79251","visual_search_trial","1144","","j","","","","","","","","","","null","red_blue_mix","3","[""images/Blue_Triangle.png"",""images/Red_Circle.png"",""images/Blue_Triangle.png"",""images/Blue_Triangle.png"",""images/Blue_Circle.png"",""images/Blue_Circle.png"",""images/Blue_Circle.png"",""images/Blue_Circle.png"",""images/Blue_Circle.png""]","true","[[235,66],[171,9],[86,6],[18,58],[1,142],[41,217],[120,249],[201,223],[247,150]]","false",""
"visual-search-circle","81","2.2.0","177772","79251","visual_search_trial","591","","j","","","","","","","","","","null","blue_triangle","3","[""images/Blue_Triangle.png"",""images/Blue_Triangle.png"",""images/Blue_Triangle.png"",""images/Blue_Triangle.png"",""images/Blue_Triangle.png"",""images/Blue_Triangle.png"",""images/Blue_Triangle.png"",""images/Blue_Triangle.png"",""images/Blue_Triangle.png""]","true","[[109,0],[33,39],[0,118],[25,200],[96,246],[181,236],[240,173],[244,88],[193,20]]","false",""
"visual-search-circle","82","2.2.0","179839","79251","visual_search_trial","565","","j","","","","","","","","","","null","red_circle","3","[""images/Red_Circle.png"",""images/Red_Circle.png"",""images/Red_Circle.png"",""images/Red_Circle.png"",""images/Red_Circle.png"",""images/Red_Circle.png""]","true","[[125,0],[16,62],[16,187],[125,250],[233,187],[233,62]]","false",""
"visual-search-circle","83","2.2.0","181836","79251","visual_search_trial","496","","j","","","","","","","","","","null","blue_triangle","3","[""images/Blue_Triangle.png"",""images/Blue_Triangle.png"",""images/Blue_Triangle.png""]","true","[[233,62],[16,62],[125,250]]","false",""
"visual-search-circle","84","2.2.0","184009","79251","visual_search_trial","671","","f","","","","","","","","","","null","red_blue_mix","3","[""images/Red_Triangle.png"",""images/Red_Circle.png"",""images/Blue_Triangle.png"",""images/Blue_Circle.png"",""images/Blue_Triangle.png"",""images/Red_Circle.png""]","true","[[0,125],[62,233],[187,233],[250,125],[187,16],[62,16]]","true",""
"visual-search-circle","85","2.2.0","186057","79251","visual_search_trial","545","","f","","","","","","","","","","null","blue_triangle","3","[""images/Red_Triangle.png"",""images/Blue_Triangle.png"",""images/Blue_Triangle.png"",""images/Blue_Triangle.png"",""images/Blue_Triangle.png"",""images/Blue_Triangle.png"",""images/Blue_Triangle.png"",""images/Blue_Triangle.png"",""images/Blue_Triangle.png""]","true","[[13,68],[3,153],[49,224],[131,249],[210,216],[249,140],[229,56],[161,5],[76,9]]","true",""
"visual-search-circle","86","2.2.0","188213","79251","visual_search_trial","652","","f","","","","","","","","","","null","red_blue_mix","3","[""images/Red_Triangle.png"",""images/Red_Circle.png"",""images/Blue_Circle.png"",""images/Red_Circle.png"",""images/Blue_Circle.png"",""images/Blue_Circle.png"",""images/Blue_Triangle.png"",""images/Red_Circle.png"",""images/Blue_Circle.png""]","true","[[39,33],[0,109],[20,193],[88,244],[173,240],[236,181],[246,96],[200,25],[118,0]]","true",""
"visual-search-circle","87","2.2.0","190308","79251","visual_search_trial","593","","j","","","","","","","","","","null","red_circle","3","[""images/Red_Circle.png"",""images/Red_Circle.png"",""images/Red_Circle.png""]","true","[[232,189],[127,0],[15,185]]","false",""
"html-keyboard-response","88","2.1.0","191946","79251","break","1637","<p>Great job so far! Please rest for a few seconds before continuing.</p>
                 <p>Press the <strong>B</strong> key on your keyboard to continue.</p>","b","","","","","","","","","","","","","","","","","B"
"visual-search-circle","89","2.2.0","194105","79251","visual_search_trial","656","","j","","","","","","","","","","null","red_circle","4","[""images/Red_Circle.png"",""images/Red_Circle.png"",""images/Red_Circle.png"",""images/Red_Circle.png"",""images/Red_Circle.png"",""images/Red_Circle.png"",""images/Red_Circle.png"",""images/Red_Circle.png"",""images/Red_Circle.png""]","true","[[0,138],[38,214],[116,249],[198,226],[246,155],[237,70],[175,10],[90,4],[21,55]]","false",""
"visual-search-circle","90","2.2.0","196070","79251","visual_search_trial","462","","j","","","","","","","","","","null","blue_triangle","4","[""images/Blue_Triangle.png"",""images/Blue_Triangle.png"",""images/Blue_Triangle.png"",""images/Blue_Triangle.png"",""images/Blue_Triangle.png"",""images/Blue_Triangle.png""]","true","[[12,179],[116,249],[228,194],[237,70],[133,0],[21,55]]","false",""
"visual-search-circle","91","2.2.0","198208","79251","visual_search_trial","635","","f","","","","","","","","","","null","red_circle","4","[""images/Red_Triangle.png"",""images/Red_Circle.png"",""images/Red_Circle.png"",""images/Red_Circle.png"",""images/Red_Circle.png"",""images/Red_Circle.png""]","true","[[0,135],[72,238],[196,227],[249,114],[177,11],[53,22]]","true",""
"visual-search-circle","92","2.2.0","200243","79251","visual_search_trial","532","","f","","","","","","","","","","null","blue_triangle","4","[""images/Red_Triangle.png"",""images/Blue_Triangle.png"",""images/Blue_Triangle.png"",""images/Blue_Triangle.png"",""images/Blue_Triangle.png"",""images/Blue_Triangle.png""]","true","[[200,25],[76,9],[0,109],[49,224],[173,240],[249,140]]","true",""
"visual-search-circle","93","2.2.0","202258","79251","visual_search_trial","512","","j","","","","","","","","","","null","red_circle","4","[""images/Red_Circle.png"",""images/Red_Circle.png"",""images/Red_Circle.png"",""images/Red_Circle.png"",""images/Red_Circle.png"",""images/Red_Circle.png""]","true","[[111,249],[226,198],[239,74],[138,0],[23,51],[10,175]]","false",""
"visual-search-circle","94","2.2.0","204386","79251","visual_search_trial","626","","j","","","","","","","","","","null","red_blue_mix","4","[""images/Blue_Triangle.png"",""images/Red_Circle.png"",""images/Blue_Triangle.png""]","true","[[6,84],[148,247],[219,42]]","false",""
"visual-search-circle","95","2.2.0","206450","79251","visual_search_trial","561","","f","","","","","","","","","","null","red_circle","4","[""images/Red_Triangle.png"",""images/Red_Circle.png"",""images/Red_Circle.png""]","true","[[150,247],[217,41],[6,86]]","true",""
"visual-search-circle","96","2.2.0","208544","79251","visual_search_trial","589","","f","","","","","","","","","","null","red_blue_mix","4","[""images/Red_Triangle.png"",""images/Red_Circle.png"",""images/Blue_Triangle.png"",""images/Blue_Triangle.png"",""images/Blue_Triangle.png"",""images/Blue_Triangle.png"",""images/Blue_Triangle.png"",""images/Blue_Circle.png"",""images/Red_Circle.png""]","true","[[35,211],[111,249],[194,228],[245,159],[239,74],[179,12],[94,3],[23,51],[0,133]]","true",""
"visual-search-circle","97","2.2.0","210652","79251","visual_search_trial","604","","j","","","","","","","","","","null","blue_triangle","4","[""images/Blue_Triangle.png"",""images/Blue_Triangle.png"",""images/Blue_Triangle.png"",""images/Blue_Triangle.png"",""images/Blue_Triangle.png"",""images/Blue_Triangle.png"",""images/Blue_Triangle.png"",""images/Blue_Triangle.png"",""images/Blue_Triangle.png""]","true","[[249,114],[213,36],[135,0],[53,22],[4,92],[11,177],[72,238],[157,245],[227,196]]","false",""
"visual-search-circle","98","2.2.0","212969","79251","visual_search_trial","814","","j","","","","","","","","","","null","red_blue_mix","4","[""images/Blue_Triangle.png"",""images/Blue_Triangle.png"",""images/Red_Circle.png"",""images/Blue_Circle.png"",""images/Blue_Triangle.png"",""images/Red_Circle.png""]","true","[[14,66],[18,191],[129,249],[235,183],[231,58],[120,0]]","false",""
"visual-search-circle","99","2.2.0","215069","79251","visual_search_trial","598","","f","","","","","","","","","","null","blue_triangle","4","[""images/Red_Triangle.png"",""images/Blue_Triangle.png"",""images/Blue_Triangle.png"",""images/Blue_Triangle.png"",""images/Blue_Triangle.png"",""images/Blue_Triangle.png"",""images/Blue_Triangle.png"",""images/Blue_Triangle.png"",""images/Blue_Triangle.png""]","true","[[228,55],[159,4],[74,10],[12,70],[3,155],[51,226],[133,249],[211,214],[249,138]]","true",""
"visual-search-circle","100","2.2.0","217136","79251","visual_search_trial","564","","j","","","","","","","","","","null","red_circle","4","[""images/Red_Circle.png"",""images/Red_Circle.png"",""images/Red_Circle.png""]","true","[[80,241],[248,105],[46,27]]","false",""
"visual-search-circle","101","2.2.0","219511","79251","visual_search_trial","872","","j","","","","","","","","","","null","red_blue_mix","4","[""images/Red_Circle.png"",""images/Blue_Circle.png"",""images/Red_Circle.png"",""images/Blue_Triangle.png"",""images/Red_Circle.png"",""images/Blue_Triangle.png"",""images/Blue_Triangle.png"",""images/Blue_Triangle.png"",""images/Blue_Circle.png""]","true","[[53,227],[135,249],[213,213],[249,135],[227,53],[157,4],[72,11],[11,72],[4,157]]","false",""
"visual-search-circle","102","2.2.0","221798","79251","visual_search_trial","784","","f","","","","","","","","","","null","blue_triangle","4","[""images/Red_Triangle.png"",""images/Blue_Triangle.png"",""images/Blue_Triangle.png""]","true","[[207,30],[2,101],[165,243]]","true",""
"visual-search-circle","103","2.2.0","224059","79251","visual_search_trial","758","","f","","","","","","","","","","null","red_blue_mix","4","[""images/Red_Triangle.png"",""images/Blue_Triangle.png"",""images/Red_Circle.png""]","true","[[205,29],[1,103],[167,242]]","true",""
"visual-search-circle","104","2.2.0","226195","79251","visual_search_trial","634","","j","","","","","","","","","","null","blue_triangle","4","[""images/Blue_Triangle.png"",""images/Blue_Triangle.png"",""images/Blue_Triangle.png""]","true","[[38,214],[246,155],[90,4]]","false",""
"visual-search-circle","105","2.2.0","228712","79251","visual_search_trial","1014","","f","","","","","","","","","","null","red_blue_mix","4","[""images/Red_Triangle.png"",""images/Blue_Triangle.png"",""images/Red_Circle.png"",""images/Red_Circle.png"",""images/Blue_Triangle.png"",""images/Red_Circle.png""]","true","[[191,18],[66,14],[0,120],[58,231],[183,235],[249,129]]","true",""
"visual-search-circle","106","2.2.0","231173","79251","visual_search_trial","956","","f","","","","","","","","","","null","red_circle","4","[""images/Red_Triangle.png"",""images/Red_Circle.png"",""images/Red_Circle.png"",""images/Red_Circle.png"",""images/Red_Circle.png"",""images/Red_Circle.png"",""images/Red_Circle.png"",""images/Red_Circle.png"",""images/Red_Circle.png""]","true","[[181,236],[240,173],[244,88],[193,20],[109,0],[33,39],[0,118],[25,200],[96,246]]","true",""
"visual-search-circle","107","2.2.0","233592","79251","visual_search_trial","917","","f","","","","","","","","","","null","red_blue_mix","5","[""images/Red_Triangle.png"",""images/Blue_Circle.png"",""images/Red_Circle.png"",""images/Blue_Triangle.png"",""images/Blue_Triangle.png"",""images/Red_Circle.png"",""images/Blue_Circle.png"",""images/Red_Circle.png"",""images/Blue_Circle.png""]","true","[[240,76],[181,13],[96,3],[25,49],[0,131],[33,210],[109,249],[193,229],[244,161]]","true",""
"visual-search-circle","108","2.2.0","235861","79251","visual_search_trial","766","","f","","","","","","","","","","null","red_circle","5","[""images/Red_Triangle.png"",""images/Red_Circle.png"",""images/Red_Circle.png"",""images/Red_Circle.png"",""images/Red_Circle.png"",""images/Red_Circle.png"",""images/Red_Circle.png"",""images/Red_Circle.png"",""images/Red_Circle.png""]","true","[[3,153],[49,224],[131,249],[210,216],[249,140],[229,56],[161,5],[76,9],[13,68]]","true",""
"visual-search-circle","109","2.2.0","238273","79251","visual_search_trial","910","","j","","","","","","","","","","null","red_blue_mix","5","[""images/Red_Circle.png"",""images/Blue_Circle.png"",""images/Blue_Triangle.png"",""images/Blue_Circle.png"",""images/Red_Circle.png"",""images/Red_Circle.png""]","true","[[169,241],[248,144],[203,27],[80,8],[1,105],[46,222]]","false",""
"visual-search-circle","110","2.2.0","240608","79251","visual_search_trial","833","","f","","","","","","","","","","null","red_circle","5","[""images/Red_Triangle.png"",""images/Red_Circle.png"",""images/Red_Circle.png"",""images/Red_Circle.png"",""images/Red_Circle.png"",""images/Red_Circle.png""]","true","[[46,222],[169,241],[248,144],[203,27],[80,8],[1,105]]","true",""
"visual-search-circle","111","2.2.0","242771","79251","visual_search_trial","660","","f","","","","","","","","","","null","blue_triangle","5","[""images/Red_Triangle.png"",""images/Blue_Triangle.png"",""images/Blue_Triangle.png"",""images/Blue_Triangle.png"",""images/Blue_Triangle.png"",""images/Blue_Triangle.png""]","true","[[7,167],[103,248],[220,205],[242,82],[146,1],[29,44]]","true",""
"visual-search-circle","112","2.2.0","245252","79251","visual_search_trial","979","","j","","","","","","","","","","null","red_circle","5","[""images/Red_Circle.png"",""images/Red_Circle.png"",""images/Red_Circle.png"",""images/Red_Circle.png"",""images/Red_Circle.png"",""images/Red_Circle.png""]","true","[[44,220],[167,242],[248,146],[205,29],[82,7],[1,103]]","false",""
"visual-search-circle","113","2.2.0","247385","79251","visual_search_trial","632","","j","","","","","","","","","","null","red_blue_mix","5","[""images/Blue_Circle.png"",""images/Blue_Circle.png"",""images/Red_Circle.png""]","true","[[105,248],[241,80],[27,46]]","false",""
"visual-search-circle","114","2.2.0","249423","79251","visual_search_trial","534","","j","","","","","","","","","","null","red_circle","5","[""images/Red_Circle.png"",""images/Red_Circle.png"",""images/Red_Circle.png"",""images/Red_Circle.png"",""images/Red_Circle.png"",""images/Red_Circle.png"",""images/Red_Circle.png"",""images/Red_Circle.png"",""images/Red_Circle.png""]","true","[[15,64],[2,148],[46,222],[127,249],[207,219],[248,144],[232,60],[165,6],[80,8]]","false",""
"visual-search-circle","115","2.2.0","251506","79251","visual_search_trial","580","","j","","","","","","","","","","null","blue_triangle","5","[""images/Blue_Triangle.png"",""images/Blue_Triangle.png"",""images/Blue_Triangle.png"",""images/Blue_Triangle.png"",""images/Blue_Triangle.png"",""images/Blue_Triangle.png"",""images/Blue_Triangle.png"",""images/Blue_Triangle.png"",""images/Blue_Triangle.png""]","true","[[165,243],[232,189],[248,105],[207,30],[127,0],[46,27],[2,101],[15,185],[80,241]]","false",""
"visual-search-circle","116","2.2.0","253669","79251","visual_search_trial","660","","j","","","","","","","","","","null","red_blue_mix","5","[""images/Red_Circle.png"",""images/Blue_Circle.png"",""images/Blue_Circle.png"",""images/Blue_Triangle.png"",""images/Blue_Circle.png"",""images/Blue_Circle.png"",""images/Blue_Triangle.png"",""images/Blue_Triangle.png"",""images/Blue_Triangle.png""]","true","[[0,135],[36,213],[114,249],[196,227],[245,157],[238,72],[177,11],[92,4],[22,53]]","false",""
"visual-search-circle","117","2.2.0","255665","79251","visual_search_trial","494","","f","","","","","","","","","","null","blue_triangle","5","[""images/Red_Triangle.png"",""images/Blue_Triangle.png"",""images/Blue_Triangle.png"",""images/Blue_Triangle.png"",""images/Blue_Triangle.png"",""images/Blue_Triangle.png"",""images/Blue_Triangle.png"",""images/Blue_Triangle.png"",""images/Blue_Triangle.png""]","true","[[213,36],[135,0],[53,22],[4,92],[11,177],[72,238],[157,245],[227,196],[249,114]]","true",""
"visual-search-circle","118","2.2.0","257676","79251","visual_search_trial","507","","j","","","","","","","","","","null","red_circle","5","[""images/Red_Circle.png"",""images/Red_Circle.png"",""images/Red_Circle.png""]","true","[[64,15],[60,232],[249,127]]","false",""
"visual-search-circle","119","2.2.0","259674","79251","visual_search_trial","496","","f","","","","","","","","","","null","blue_triangle","5","[""images/Red_Triangle.png"",""images/Blue_Triangle.png"",""images/Blue_Triangle.png""]","true","[[177,238],[196,22],[0,114]]","true",""
"visual-search-circle","120","2.2.0","261721","79251","visual_search_trial","545","","f","","","","","","","","","","null","red_blue_mix","5","[""images/Red_Triangle.png"",""images/Blue_Triangle.png"",""images/Blue_Circle.png"",""images/Blue_Circle.png"",""images/Blue_Triangle.png"",""images/Blue_Circle.png""]","true","[[1,146],[82,242],[205,220],[248,103],[167,7],[44,29]]","true",""
"visual-search-circle","121","2.2.0","263727","79251","visual_search_trial","504","","j","","","","","","","","","","null","blue_triangle","5","[""images/Blue_Triangle.png"",""images/Blue_Triangle.png"",""images/Blue_Triangle.png""]","true","[[237,179],[116,0],[21,194]]","false",""
"visual-search-circle","122","2.2.0","265702","79251","visual_search_trial","473","","f","","","","","","","","","","null","red_blue_mix","5","[""images/Red_Triangle.png"",""images/Blue_Circle.png"",""images/Blue_Circle.png""]","true","[[140,249],[224,49],[9,76]]","true",""
"visual-search-circle","123","2.2.0","267752","79251","visual_search_trial","547","","j","","","","","","","","","","null","blue_triangle","5","[""images/Blue_Triangle.png"",""images/Blue_Triangle.png"",""images/Blue_Triangle.png"",""images/Blue_Triangle.png"",""images/Blue_Triangle.png"",""images/Blue_Triangle.png""]","true","[[179,237],[249,133],[194,21],[70,12],[0,116],[55,228]]","false",""
"visual-search-circle","124","2.2.0","269957","79251","visual_search_trial","702","","f","","","","","","","","","","null","red_circle","5","[""images/Red_Triangle.png"",""images/Red_Circle.png"",""images/Red_Circle.png""]","true","[[240,76],[25,49],[109,249]]","true",""
"html-keyboard-response","125","2.1.0","271135","79251","break","1178","<p>Great job so far! Please rest for a few seconds before continuing.</p>
                 <p>Press the <strong>G</strong> key on your keyboard to continue.</p>","g","","","","","","","","","","","","","","","","","G"
"visual-search-circle","126","2.2.0","273235","79251","visual_search_trial","597","","j","","","","","","","","","","null","red_circle","6","[""images/Red_Circle.png"",""images/Red_Circle.png"",""images/Red_Circle.png"",""images/Red_Circle.png"",""images/Red_Circle.png"",""images/Red_Circle.png""]","true","[[60,232],[185,234],[249,127],[189,17],[64,15],[0,122]]","false",""
"visual-search-circle","127","2.2.0","275316","79251","visual_search_trial","578","","f","","","","","","","","","","null","blue_triangle","6","[""images/Red_Triangle.png"",""images/Blue_Triangle.png"",""images/Blue_Triangle.png""]","true","[[125,250],[233,62],[16,62]]","true",""
"visual-search-circle","128","2.2.0","277552","79251","visual_search_trial","734","","j","","","","","","","","","","null","red_blue_mix","6","[""images/Blue_Triangle.png"",""images/Red_Circle.png"",""images/Red_Circle.png"",""images/Red_Circle.png"",""images/Red_Circle.png"",""images/Blue_Circle.png"",""images/Blue_Circle.png"",""images/Blue_Triangle.png"",""images/Blue_Triangle.png""]","true","[[183,235],[240,171],[243,86],[191,18],[107,1],[32,41],[0,120],[26,201],[99,247]]","false",""
"visual-search-circle","129","2.2.0","279669","79251","visual_search_trial","613","","f","","","","","","","","","","null","blue_triangle","6","[""images/Red_Triangle.png"",""images/Blue_Triangle.png"",""images/Blue_Triangle.png"",""images/Blue_Triangle.png"",""images/Blue_Triangle.png"",""images/Blue_Triangle.png"",""images/Blue_Triangle.png"",""images/Blue_Triangle.png"",""images/Blue_Triangle.png""]","true","[[201,223],[247,150],[235,66],[171,9],[86,6],[18,58],[1,142],[41,217],[120,249]]","true",""
"visual-search-circle","130","2.2.0","281662","79251","visual_search_trial","490","","f","","","","","","","","","","null","red_blue_mix","6","[""images/Red_Triangle.png"",""images/Blue_Circle.png"",""images/Blue_Circle.png""]","true","[[155,246],[214,38],[4,90]]","true",""
"visual-search-circle","131","2.2.0","283599","79251","visual_search_trial","435","","f","","","","","","","","","","null","red_circle","6","[""images/Red_Triangle.png"",""images/Red_Circle.png"",""images/Red_Circle.png""]","true","[[0,138],[198,226],[175,10]]","true",""
"visual-search-circle","132","2.2.0","285760","79251","visual_search_trial","658","","j","","","","","","","","","","null","red_blue_mix","6","[""images/Red_Circle.png"",""images/Red_Circle.png"",""images/Blue_Circle.png"",""images/Red_Circle.png"",""images/Blue_Triangle.png"",""images/Blue_Triangle.png""]","true","[[10,175],[111,249],[226,198],[239,74],[138,0],[23,51]]","false",""
"visual-search-circle","133","2.2.0","287869","79251","visual_search_trial","605","","j","","","","","","","","","","null","blue_triangle","6","[""images/Blue_Triangle.png"",""images/Blue_Triangle.png"",""images/Blue_Triangle.png"",""images/Blue_Triangle.png"",""images/Blue_Triangle.png"",""images/Blue_Triangle.png"",""images/Blue_Triangle.png"",""images/Blue_Triangle.png"",""images/Blue_Triangle.png""]","true","[[1,105],[17,189],[84,243],[169,241],[234,185],[247,101],[203,27],[122,0],[42,30]]","false",""
"visual-search-circle","134","2.2.0","290136","79251","visual_search_trial","764","","j","","","","","","","","","","null","red_blue_mix","6","[""images/Red_Circle.png"",""images/Blue_Triangle.png"",""images/Blue_Circle.png""]","true","[[249,133],[70,12],[55,228]]","false",""
"visual-search-circle","135","2.2.0","292135","79251","visual_search_trial","497","","j","","","","","","","","","","null","blue_triangle","6","[""images/Blue_Triangle.png"",""images/Blue_Triangle.png"",""images/Blue_Triangle.png""]","true","[[211,35],[3,94],[159,245]]","false",""
"visual-search-circle","136","2.2.0","294168","79251","visual_search_trial","531","","f","","","","","","","","","","null","red_blue_mix","6","[""images/Red_Triangle.png"",""images/Blue_Triangle.png"",""images/Blue_Triangle.png"",""images/Red_Circle.png"",""images/Blue_Triangle.png"",""images/Blue_Circle.png""]","true","[[62,233],[187,233],[250,125],[187,16],[62,16],[0,124]]","true",""
"visual-search-circle","137","2.2.0","296168","79251","visual_search_trial","497","","j","","","","","","","","","","null","red_circle","6","[""images/Red_Circle.png"",""images/Red_Circle.png"",""images/Red_Circle.png"",""images/Red_Circle.png"",""images/Red_Circle.png"",""images/Red_Circle.png"",""images/Red_Circle.png"",""images/Red_Circle.png"",""images/Red_Circle.png""]","true","[[64,234],[148,247],[222,203],[249,122],[219,42],[144,1],[60,17],[6,84],[8,169]]","false",""
"visual-search-circle","138","2.2.0","298409","79251","visual_search_trial","738","","j","","","","","","","","","","null","blue_triangle","6","[""images/Blue_Triangle.png"",""images/Blue_Triangle.png"",""images/Blue_Triangle.png"",""images/Blue_Triangle.png"",""images/Blue_Triangle.png"",""images/Blue_Triangle.png""]","true","[[236,68],[131,0],[20,56],[13,181],[118,249],[229,193]]","false",""
"visual-search-circle","139","2.2.0","301069","79251","visual_search_trial","1159","","f","","","","","","","","","","null","red_circle","6","[""images/Red_Triangle.png"",""images/Red_Circle.png"",""images/Red_Circle.png"",""images/Red_Circle.png"",""images/Red_Circle.png"",""images/Red_Circle.png""]","true","[[21,55],[12,179],[116,249],[228,194],[237,70],[133,0]]","true",""
"visual-search-circle","140","2.2.0","303183","79251","visual_search_trial","610","","f","","","","","","","","","","null","blue_triangle","6","[""images/Red_Triangle.png"",""images/Blue_Triangle.png"",""images/Blue_Triangle.png"",""images/Blue_Triangle.png"",""images/Blue_Triangle.png"",""images/Blue_Triangle.png""]","true","[[198,226],[249,111],[175,10],[51,23],[0,138],[74,239]]","true",""
"visual-search-circle","141","2.2.0","305228","79251","visual_search_trial","542","","f","","","","","","","","","","null","red_circle","6","[""images/Red_Triangle.png"",""images/Red_Circle.png"",""images/Red_Circle.png"",""images/Red_Circle.png"",""images/Red_Circle.png"",""images/Red_Circle.png"",""images/Red_Circle.png"",""images/Red_Circle.png"",""images/Red_Circle.png""]","true","[[76,9],[13,68],[3,153],[49,224],[131,249],[210,216],[249,140],[229,56],[161,5]]","true",""
"visual-search-circle","142","2.2.0","307570","79251","visual_search_trial","839","","f","","","","","","","","","","null","red_blue_mix","6","[""images/Red_Triangle.png"",""images/Red_Circle.png"",""images/Red_Circle.png"",""images/Blue_Triangle.png"",""images/Red_Circle.png"",""images/Blue_Triangle.png"",""images/Red_Circle.png"",""images/Red_Circle.png"",""images/Blue_Triangle.png""]","true","[[155,246],[226,198],[249,116],[214,38],[138,0],[55,21],[4,90],[10,175],[70,237]]","true",""
"visual-search-circle","143","2.2.0","309614","79251","visual_search_trial","542","","j","","","","","","","","","","null","red_circle","6","[""images/Red_Circle.png"",""images/Red_Circle.png"",""images/Red_Circle.png""]","true","[[144,1],[8,169],[222,203]]","false",""
"visual-search-circle","144","2.2.0","311882","79251","visual_search_trial","765","","f","","","","","","","","","","null","red_blue_mix","7","[""images/Red_Triangle.png"",""images/Blue_Triangle.png"",""images/Red_Circle.png"",""images/Blue_Circle.png"",""images/Blue_Triangle.png"",""images/Blue_Triangle.png""]","true","[[0,114],[53,227],[177,238],[249,135],[196,22],[72,11]]","true",""
"visual-search-circle","145","2.2.0","314019","79251","visual_search_trial","633","","j","","","","","","","","","","null","blue_triangle","7","[""images/Blue_Triangle.png"",""images/Blue_Triangle.png"",""images/Blue_Triangle.png"",""images/Blue_Triangle.png"",""images/Blue_Triangle.png"",""images/Blue_Triangle.png"",""images/Blue_Triangle.png"",""images/Blue_Triangle.png"",""images/Blue_Triangle.png""]","true","[[60,232],[144,248],[219,207],[249,127],[222,46],[148,2],[64,15],[8,80],[6,165]]","false",""
"visual-search-circle","146","2.2.0","315971","79251","visual_search_trial","450","","f","","","","","","","","","","null","red_circle","7","[""images/Red_Triangle.png"",""images/Red_Circle.png"",""images/Red_Circle.png""]","true","[[13,181],[229,193],[131,0]]","true",""
"visual-search-circle","147","2.2.0","318014","79251","visual_search_trial","539","","f","","","","","","","","","","null","blue_triangle","7","[""images/Red_Triangle.png"",""images/Blue_Triangle.png"",""images/Blue_Triangle.png"",""images/Blue_Triangle.png"",""images/Blue_Triangle.png"",""images/Blue_Triangle.png"",""images/Blue_Triangle.png"",""images/Blue_Triangle.png"",""images/Blue_Triangle.png""]","true","[[103,1],[29,44],[0,125],[29,205],[103,248],[187,233],[242,167],[242,82],[187,16]]","true",""
"visual-search-circle","148","2.2.0","320102","79251","visual_search_trial","585","","j","","","","","","","","","","null","red_circle","7","[""images/Red_Circle.png"",""images/Red_Circle.png"",""images/Red_Circle.png"",""images/Red_Circle.png"",""images/Red_Circle.png"",""images/Red_Circle.png""]","true","[[233,62],[125,0],[16,62],[16,187],[125,250],[233,187]]","false",""
"visual-search-circle","149","2.2.0","322321","79251","visual_search_trial","717","","j","","","","","","","","","","null","red_blue_mix","7","[""images/Blue_Circle.png"",""images/Blue_Triangle.png"",""images/Red_Circle.png"",""images/Blue_Triangle.png"",""images/Red_Circle.png"",""images/Red_Circle.png""]","true","[[220,205],[242,82],[146,1],[29,44],[7,167],[103,248]]","false",""
"visual-search-circle","150","2.2.0","324375","79251","visual_search_trial","552","","f","","","","","","","","","","null","blue_triangle","7","[""images/Red_Triangle.png"",""images/Blue_Triangle.png"",""images/Blue_Triangle.png"",""images/Blue_Triangle.png"",""images/Blue_Triangle.png"",""images/Blue_Triangle.png""]","true","[[177,11],[53,22],[0,135],[72,238],[196,227],[249,114]]","true",""
"visual-search-circle","151","2.2.0","326540","79251","visual_search_trial","661","","j","","","","","","","","","","null","red_circle","7","[""images/Red_Circle.png"",""images/Red_Circle.png"",""images/Red_Circle.png""]","true","[[155,3],[4,159],[214,211]]","false",""
"visual-search-circle","152","2.2.0","329074","79251","visual_search_trial","1031","","j","","","","","","","","","","null","red_blue_mix","7","[""images/Blue_Circle.png"",""images/Red_Circle.png"",""images/Blue_Triangle.png"",""images/Blue_Triangle.png"",""images/Blue_Circle.png"",""images/Red_Circle.png"",""images/Blue_Triangle.png"",""images/Blue_Circle.png"",""images/Blue_Circle.png""]","true","[[36,213],[114,249],[196,227],[245,157],[238,72],[177,11],[92,4],[22,53],[0,135]]","false",""
"visual-search-circle","153","2.2.0","331348","79251","visual_search_trial","772","","f","","","","","","","","","","null","red_circle","7","[""images/Red_Triangle.png"",""images/Red_Circle.png"",""images/Red_Circle.png"",""images/Red_Circle.png"",""images/Red_Circle.png"",""images/Red_Circle.png""]","true","[[249,133],[194,21],[70,12],[0,116],[55,228],[179,237]]","true",""
"visual-search-circle","154","2.2.0","333393","79251","visual_search_trial","543","","f","","","","","","","","","","null","red_blue_mix","7","[""images/Red_Triangle.png"",""images/Red_Circle.png"",""images/Blue_Circle.png""]","true","[[214,38],[4,90],[155,246]]","true",""
"visual-search-circle","155","2.2.0","335573","79251","visual_search_trial","676","","j","","","","","","","","","","null","blue_triangle","7","[""images/Blue_Triangle.png"",""images/Blue_Triangle.png"",""images/Blue_Triangle.png"",""images/Blue_Triangle.png"",""images/Blue_Triangle.png"",""images/Blue_Triangle.png""]","true","[[60,232],[185,234],[249,127],[189,17],[64,15],[0,122]]","false",""
"visual-search-circle","156","2.2.0","337602","79251","visual_search_trial","526","","j","","","","","","","","","","null","red_circle","7","[""images/Red_Circle.png"",""images/Red_Circle.png"",""images/Red_Circle.png"",""images/Red_Circle.png"",""images/Red_Circle.png"",""images/Red_Circle.png"",""images/Red_Circle.png"",""images/Red_Circle.png"",""images/Red_Circle.png""]","true","[[238,177],[245,92],[196,22],[114,0],[36,36],[0,114],[22,196],[92,245],[177,238]]","false",""
"visual-search-circle","157","2.2.0","339688","79251","visual_search_trial","583","","f","","","","","","","","","","null","red_blue_mix","7","[""images/Red_Triangle.png"",""images/Blue_Triangle.png"",""images/Red_Circle.png"",""images/Red_Circle.png"",""images/Red_Circle.png"",""images/Blue_Circle.png"",""images/Blue_Triangle.png"",""images/Blue_Triangle.png"",""images/Blue_Triangle.png""]","true","[[211,35],[133,0],[51,23],[3,94],[12,179],[74,239],[159,245],[228,194],[249,111]]","true",""
"visual-search-circle","158","2.2.0","341749","79251","visual_search_trial","559","","j","","","","","","","","","","null","blue_triangle","7","[""images/Blue_Triangle.png"",""images/Blue_Triangle.png"",""images/Blue_Triangle.png""]","true","[[0,118],[181,236],[193,20]]","false",""
"visual-search-circle","159","2.2.0","343821","79251","visual_search_trial","567","","f","","","","","","","","","","null","red_circle","7","[""images/Red_Triangle.png"",""images/Red_Circle.png"",""images/Red_Circle.png"",""images/Red_Circle.png"",""images/Red_Circle.png"",""images/Red_Circle.png"",""images/Red_Circle.png"",""images/Red_Circle.png"",""images/Red_Circle.png""]","true","[[201,26],[120,0],[41,32],[1,107],[18,191],[86,243],[171,240],[235,183],[247,99]]","true",""
"visual-search-circle","160","2.2.0","345856","79251","visual_search_trial","534","","j","","","","","","","","","","null","red_blue_mix","7","[""images/Blue_Triangle.png"",""images/Blue_Triangle.png"",""images/Blue_Circle.png""]","true","[[243,165],[101,2],[30,207]]","false",""
"visual-search-circle","161","2.2.0","347958","79251","visual_search_trial","598","","f","","","","","","","","","","null","blue_triangle","7","[""images/Red_Triangle.png"",""images/Blue_Triangle.png"",""images/Blue_Triangle.png""]","true","[[101,2],[30,207],[243,165]]","true",""
"html-keyboard-response","162","2.1.0","349340","79251","break","1382","<p>Great job so far! Please rest for a few seconds before continuing.</p>
                 <p>Press the <strong>C</strong> key on your keyboard to continue.</p>","c","","","","","","","","","","","","","","","","","C"
"visual-search-circle","163","2.2.0","351445","79251","visual_search_trial","602","","f","","","","","","","","","","null","blue_triangle","8","[""images/Red_Triangle.png"",""images/Blue_Triangle.png"",""images/Blue_Triangle.png"",""images/Blue_Triangle.png"",""images/Blue_Triangle.png"",""images/Blue_Triangle.png"",""images/Blue_Triangle.png"",""images/Blue_Triangle.png"",""images/Blue_Triangle.png""]","true","[[179,237],[239,175],[245,90],[194,21],[111,0],[35,38],[0,116],[23,198],[94,246]]","true",""
"visual-search-circle","164","2.2.0","353479","79251","visual_search_trial","531","","f","","","","","","","","","","null","red_circle","8","[""images/Red_Triangle.png"",""images/Red_Circle.png"",""images/Red_Circle.png""]","true","[[191,18],[0,120],[183,235]]","true",""
"visual-search-circle","165","2.2.0","355577","79251","visual_search_trial","595","","j","","","","","","","","","","null","red_blue_mix","8","[""images/Red_Circle.png"",""images/Blue_Triangle.png"",""images/Blue_Circle.png""]","true","[[234,185],[122,0],[17,189]]","false",""
"visual-search-circle","166","2.2.0","357615","79251","visual_search_trial","535","","j","","","","","","","","","","null","blue_triangle","8","[""images/Blue_Triangle.png"",""images/Blue_Triangle.png"",""images/Blue_Triangle.png"",""images/Blue_Triangle.png"",""images/Blue_Triangle.png"",""images/Blue_Triangle.png"",""images/Blue_Triangle.png"",""images/Blue_Triangle.png"",""images/Blue_Triangle.png""]","true","[[2,148],[46,222],[127,249],[207,219],[248,144],[232,60],[165,6],[80,8],[15,64]]","false",""
"visual-search-circle","167","2.2.0","359681","79251","visual_search_trial","564","","j","","","","","","","","","","null","red_circle","8","[""images/Red_Circle.png"",""images/Red_Circle.png"",""images/Red_Circle.png""]","true","[[0,129],[191,231],[183,14]]","false",""
"visual-search-circle","168","2.2.0","361652","79251","visual_search_trial","469","","f","","","","","","","","","","null","red_blue_mix","8","[""images/Red_Triangle.png"",""images/Blue_Triangle.png"",""images/Blue_Triangle.png"",""images/Blue_Circle.png"",""images/Blue_Circle.png"",""images/Blue_Triangle.png""]","true","[[138,0],[23,51],[10,175],[111,249],[226,198],[239,74]]","true",""
"visual-search-circle","169","2.2.0","363643","79251","visual_search_trial","489","","j","","","","","","","","","","null","blue_triangle","8","[""images/Blue_Triangle.png"",""images/Blue_Triangle.png"",""images/Blue_Triangle.png"",""images/Blue_Triangle.png"",""images/Blue_Triangle.png"",""images/Blue_Triangle.png""]","true","[[249,140],[200,25],[76,9],[0,109],[49,224],[173,240]]","false",""
"visual-search-circle","170","2.2.0","365604","79251","visual_search_trial","457","","f","","","","","","","","","","null","red_blue_mix","8","[""images/Red_Triangle.png"",""images/Blue_Triangle.png"",""images/Blue_Circle.png"",""images/Blue_Circle.png"",""images/Blue_Circle.png"",""images/Blue_Circle.png"",""images/Blue_Triangle.png"",""images/Blue_Triangle.png"",""images/Blue_Triangle.png""]","true","[[20,193],[88,244],[173,240],[236,181],[246,96],[200,25],[118,0],[39,33],[0,109]]","true",""
"visual-search-circle","171","2.2.0","367652","79251","visual_search_trial","547","","j","","","","","","","","","","null","blue_triangle","8","[""images/Blue_Triangle.png"",""images/Blue_Triangle.png"",""images/Blue_Triangle.png""]","true","[[74,10],[51,226],[249,138]]","false",""
"visual-search-circle","172","2.2.0","369759","79251","visual_search_trial","603","","f","","","","","","","","","","null","red_circle","8","[""images/Red_Triangle.png"",""images/Red_Circle.png"",""images/Red_Circle.png"",""images/Red_Circle.png"",""images/Red_Circle.png"",""images/Red_Circle.png"",""images/Red_Circle.png"",""images/Red_Circle.png"",""images/Red_Circle.png""]","true","[[53,22],[4,92],[11,177],[72,238],[157,245],[227,196],[249,114],[213,36],[135,0]]","true",""
"visual-search-circle","173","2.2.0","371806","79251","visual_search_trial","543","","f","","","","","","","","","","null","red_blue_mix","8","[""images/Red_Triangle.png"",""images/Blue_Circle.png"",""images/Blue_Circle.png""]","true","[[219,42],[6,84],[148,247]]","true",""
"visual-search-circle","174","2.2.0","373835","79251","visual_search_trial","527","","j","","","","","","","","","","null","red_circle","8","[""images/Red_Circle.png"",""images/Red_Circle.png"",""images/Red_Circle.png"",""images/Red_Circle.png"",""images/Red_Circle.png"",""images/Red_Circle.png""]","true","[[146,248],[242,167],[220,44],[103,1],[7,82],[29,205]]","false",""
"visual-search-circle","175","2.2.0","375894","79251","visual_search_trial","556","","f","","","","","","","","","","null","blue_triangle","8","[""images/Red_Triangle.png"",""images/Blue_Triangle.png"",""images/Blue_Triangle.png""]","true","[[217,208],[150,2],[6,163]]","true",""
"visual-search-circle","176","2.2.0","377927","79251","visual_search_trial","531","","f","","","","","","","","","","null","red_circle","8","[""images/Red_Triangle.png"",""images/Red_Circle.png"",""images/Red_Circle.png"",""images/Red_Circle.png"",""images/Red_Circle.png"",""images/Red_Circle.png""]","true","[[239,175],[226,51],[111,0],[10,74],[23,198],[138,249]]","true",""
"visual-search-circle","177","2.2.0","380221","79251","visual_search_trial","790","","j","","","","","","","","","","null","red_blue_mix","8","[""images/Blue_Triangle.png"",""images/Blue_Circle.png"",""images/Red_Circle.png"",""images/Blue_Circle.png"",""images/Red_Circle.png"",""images/Blue_Circle.png"",""images/Blue_Circle.png"",""images/Blue_Triangle.png"",""images/Blue_Circle.png""]","true","[[118,249],[200,224],[246,153],[236,68],[173,9],[88,5],[20,56],[0,140],[39,216]]","false",""
"visual-search-circle","178","2.2.0","382288","79251","visual_search_trial","564","","f","","","","","","","","","","null","blue_triangle","8","[""images/Red_Triangle.png"",""images/Blue_Triangle.png"",""images/Blue_Triangle.png"",""images/Blue_Triangle.png"",""images/Blue_Triangle.png"",""images/Blue_Triangle.png""]","true","[[187,233],[250,125],[187,16],[62,16],[0,124],[62,233]]","true",""
"visual-search-circle","179","2.2.0","384556","79251","visual_search_trial","764","","j","","","","","","","","","","null","red_blue_mix","8","[""images/Blue_Triangle.png"",""images/Red_Circle.png"",""images/Blue_Triangle.png"",""images/Red_Circle.png"",""images/Blue_Circle.png"",""images/Blue_Circle.png""]","true","[[92,245],[213,213],[245,92],[157,4],[36,36],[4,157]]","false",""
"visual-search-circle","180","2.2.0","386635","79251","visual_search_trial","576","","j","","","","","","","","","","null","red_circle","8","[""images/Red_Circle.png"",""images/Red_Circle.png"",""images/Red_Circle.png"",""images/Red_Circle.png"",""images/Red_Circle.png"",""images/Red_Circle.png"",""images/Red_Circle.png"",""images/Red_Circle.png"",""images/Red_Circle.png""]","true","[[44,220],[125,250],[205,220],[248,146],[233,62],[167,7],[82,7],[16,62],[1,146]]","false",""
"visual-search-circle","181","2.2.0","388611","79251","visual_search_trial","472","","j","","","","","","","","","","null","red_circle","9","[""images/Red_Circle.png"",""images/Red_Circle.png"",""images/Red_Circle.png"",""images/Red_Circle.png"",""images/Red_Circle.png"",""images/Red_Circle.png"",""images/Red_Circle.png"",""images/Red_Circle.png"",""images/Red_Circle.png""]","true","[[18,58],[1,142],[41,217],[120,249],[201,223],[247,150],[235,66],[171,9],[86,6]]","false",""
"visual-search-circle","182","2.2.0","390711","79251","visual_search_trial","597","","f","","","","","","","","","","null","blue_triangle","9","[""images/Red_Triangle.png"",""images/Blue_Triangle.png"",""images/Blue_Triangle.png"",""images/Blue_Triangle.png"",""images/Blue_Triangle.png"",""images/Blue_Triangle.png""]","true","[[163,6],[41,32],[2,150],[86,243],[208,217],[247,99]]","true",""
"visual-search-circle","183","2.2.0","393149","79251","visual_search_trial","936","","j","","","","","","","","","","null","red_blue_mix","9","[""images/Blue_Circle.png"",""images/Blue_Circle.png"",""images/Red_Circle.png"",""images/Blue_Triangle.png"",""images/Red_Circle.png"",""images/Red_Circle.png""]","true","[[148,247],[243,165],[219,42],[101,2],[6,84],[30,207]]","false",""
"visual-search-circle","184","2.2.0","395209","79251","visual_search_trial","557","","f","","","","","","","","","","null","blue_triangle","9","[""images/Red_Triangle.png"",""images/Blue_Triangle.png"",""images/Blue_Triangle.png"",""images/Blue_Triangle.png"",""images/Blue_Triangle.png"",""images/Blue_Triangle.png"",""images/Blue_Triangle.png"",""images/Blue_Triangle.png"",""images/Blue_Triangle.png""]","true","[[235,66],[171,9],[86,6],[18,58],[1,142],[41,217],[120,249],[201,223],[247,150]]","true",""
"visual-search-circle","185","2.2.0","397420","79251","visual_search_trial","708","","f","","","","","","","","","","null","red_blue_mix","9","[""images/Red_Triangle.png"",""images/Red_Circle.png"",""images/Red_Circle.png"",""images/Blue_Triangle.png"",""images/Red_Circle.png"",""images/Red_Circle.png""]","true","[[183,14],[58,18],[0,129],[66,235],[191,231],[249,120]]","true",""
"visual-search-circle","186","2.2.0","399422","79251","visual_search_trial","499","","j","","","","","","","","","","null","red_circle","9","[""images/Red_Circle.png"",""images/Red_Circle.png"",""images/Red_Circle.png""]","true","[[200,224],[173,9],[0,140]]","false",""
"visual-search-circle","187","2.2.0","401712","79251","visual_search_trial","787","","j","","","","","","","","","","null","red_blue_mix","9","[""images/Red_Circle.png"",""images/Blue_Triangle.png"",""images/Red_Circle.png""]","true","[[213,213],[157,4],[4,157]]","false",""
"visual-search-circle","188","2.2.0","403844","79251","visual_search_trial","629","","f","","","","","","","","","","null","red_circle","9","[""images/Red_Triangle.png"",""images/Red_Circle.png"",""images/Red_Circle.png"",""images/Red_Circle.png"",""images/Red_Circle.png"",""images/Red_Circle.png"",""images/Red_Circle.png"",""images/Red_Circle.png"",""images/Red_Circle.png""]","true","[[127,249],[207,219],[248,144],[232,60],[165,6],[80,8],[15,64],[2,148],[46,222]]","true",""
"visual-search-circle","189","2.2.0","405899","79251","visual_search_trial","552","","f","","","","","","","","","","null","blue_triangle","9","[""images/Red_Triangle.png"",""images/Blue_Triangle.png"",""images/Blue_Triangle.png""]","true","[[249,133],[70,12],[55,228]]","true",""
"visual-search-circle","190","2.2.0","408501","79251","visual_search_trial","1100","","j","","","","","","","","","","null","red_blue_mix","9","[""images/Red_Circle.png"",""images/Blue_Triangle.png"",""images/Blue_Triangle.png"",""images/Blue_Circle.png"",""images/Red_Circle.png"",""images/Blue_Triangle.png"",""images/Blue_Triangle.png"",""images/Blue_Triangle.png"",""images/Blue_Triangle.png""]","true","[[42,30],[1,105],[17,189],[84,243],[169,241],[234,185],[247,101],[203,27],[122,0]]","false",""
"visual-search-circle","191","2.2.0","410506","79251","visual_search_trial","503","","f","","","","","","","","","","null","red_circle","9","[""images/Red_Triangle.png"",""images/Red_Circle.png"",""images/Red_Circle.png"",""images/Red_Circle.png"",""images/Red_Circle.png"",""images/Red_Circle.png""]","true","[[30,207],[148,247],[243,165],[219,42],[101,2],[6,84]]","true",""
"visual-search-circle","192","2.2.0","412586","79251","visual_search_trial","575","","f","","","","","","","","","","null","red_blue_mix","9","[""images/Red_Triangle.png"",""images/Blue_Circle.png"",""images/Blue_Circle.png"",""images/Blue_Triangle.png"",""images/Blue_Circle.png"",""images/Red_Circle.png"",""images/Red_Circle.png"",""images/Blue_Triangle.png"",""images/Red_Circle.png""]","true","[[1,107],[18,191],[86,243],[171,240],[235,183],[247,99],[201,26],[120,0],[41,32]]","true",""
"visual-search-circle","193","2.2.0","414635","79251","visual_search_trial","546","","j","","","","","","","","","","null","red_circle","9","[""images/Red_Circle.png"",""images/Red_Circle.png"",""images/Red_Circle.png"",""images/Red_Circle.png"",""images/Red_Circle.png"",""images/Red_Circle.png""]","true","[[208,217],[247,99],[163,6],[41,32],[2,150],[86,243]]","false",""
"visual-search-circle","194","2.2.0","416668","79251","visual_search_trial","531","","j","","","","","","","","","","null","blue_triangle","9","[""images/Blue_Triangle.png"",""images/Blue_Triangle.png"",""images/Blue_Triangle.png""]","true","[[229,56],[13,68],[131,249]]","false",""
"visual-search-circle","195","2.2.0","418861","79251","visual_search_trial","691","","f","","","","","","","","","","null","red_circle","9","[""images/Red_Triangle.png"",""images/Red_Circle.png"",""images/Red_Circle.png""]","true","[[144,248],[222,46],[8,80]]","true",""
"visual-search-circle","196","2.2.0","421022","79251","visual_search_trial","658","","j","","","","","","","","","","null","blue_triangle","9","[""images/Blue_Triangle.png"",""images/Blue_Triangle.png"",""images/Blue_Triangle.png"",""images/Blue_Triangle.png"",""images/Blue_Triangle.png"",""images/Blue_Triangle.png"",""images/Blue_Triangle.png"",""images/Blue_Triangle.png"",""images/Blue_Triangle.png""]","true","[[107,248],[191,231],[243,163],[240,78],[183,14],[99,2],[26,48],[0,129],[32,208]]","false",""
"visual-search-circle","197","2.2.0","422985","79251","visual_search_trial","460","","f","","","","","","","","","","null","red_blue_mix","9","[""images/Red_Triangle.png"",""images/Blue_Triangle.png"",""images/Red_Circle.png""]","true","[[179,12],[0,133],[194,228]]","true",""
"visual-search-circle","198","2.2.0","425101","79251","visual_search_trial","614","","j","","","","","","","","","","null","blue_triangle","9","[""images/Blue_Triangle.png"",""images/Blue_Triangle.png"",""images/Blue_Triangle.png"",""images/Blue_Triangle.png"",""images/Blue_Triangle.png"",""images/Blue_Triangle.png""]","true","[[220,205],[242,82],[146,1],[29,44],[7,167],[103,248]]","false",""
"html-keyboard-response","199","2.1.0","427241","79251","break","2139","<p>Great job so far! Please rest for a few seconds before continuing.</p>
                 <p>Press the <strong>I</strong> key on your keyboard to continue.</p>","i","","","","","","","","","","","","","","","","","I"
"visual-search-circle","200","2.2.0","429309","79251","visual_search_trial","566","","j","","","","","","","","","","null","blue_triangle","10","[""images/Blue_Triangle.png"",""images/Blue_Triangle.png"",""images/Blue_Triangle.png""]","true","[[233,187],[125,0],[16,187]]","false",""
"visual-search-circle","201","2.2.0","431711","79251","visual_search_trial","900","","j","","","","","","","","","","null","red_blue_mix","10","[""images/Red_Circle.png"",""images/Blue_Circle.png"",""images/Blue_Triangle.png"",""images/Blue_Circle.png"",""images/Red_Circle.png"",""images/Blue_Triangle.png""]","true","[[18,191],[129,249],[235,183],[231,58],[120,0],[14,66]]","false",""
"visual-search-circle","202","2.2.0","433819","79251","visual_search_trial","605","","f","","","","","","","","","","null","red_circle","10","[""images/Red_Triangle.png"",""images/Red_Circle.png"",""images/Red_Circle.png"",""images/Red_Circle.png"",""images/Red_Circle.png"",""images/Red_Circle.png""]","true","[[96,246],[216,210],[244,88],[153,3],[33,39],[5,161]]","true",""
"visual-search-circle","203","2.2.0","435852","79251","visual_search_trial","530","","f","","","","","","","","","","null","blue_triangle","10","[""images/Red_Triangle.png"",""images/Blue_Triangle.png"",""images/Blue_Triangle.png"",""images/Blue_Triangle.png"",""images/Blue_Triangle.png"",""images/Blue_Triangle.png"",""images/Blue_Triangle.png"",""images/Blue_Triangle.png"",""images/Blue_Triangle.png""]","true","[[4,159],[55,228],[138,249],[214,211],[249,133],[226,51],[155,3],[70,12],[10,74]]","true",""
"visual-search-circle","204","2.2.0","437868","79251","visual_search_trial","514","","f","","","","","","","","","","null","red_blue_mix","10","[""images/Red_Triangle.png"",""images/Red_Circle.png"",""images/Blue_Triangle.png""]","true","[[245,90],[35,38],[94,246]]","true",""
"visual-search-circle","205","2.2.0","439901","79251","visual_search_trial","530","","j","","","","","","","","","","null","red_circle","10","[""images/Red_Circle.png"",""images/Red_Circle.png"",""images/Red_Circle.png""]","true","[[140,0],[9,173],[224,200]]","false",""
"visual-search-circle","206","2.2.0","443919","79251","visual_search_trial","2515","","f","","","","","","","","","","null","blue_triangle","10","[""images/Red_Triangle.png"",""images/Blue_Triangle.png"",""images/Blue_Triangle.png"",""images/Blue_Triangle.png"",""images/Blue_Triangle.png"",""images/Blue_Triangle.png""]","true","[[88,5],[3,96],[39,216],[161,244],[246,153],[210,33]]","true",""
"visual-search-circle","207","2.2.0","445919","79251","visual_search_trial","497","","j","","","","","","","","","","null","red_circle","10","[""images/Red_Circle.png"",""images/Red_Circle.png"",""images/Red_Circle.png"",""images/Red_Circle.png"",""images/Red_Circle.png"",""images/Red_Circle.png""]","true","[[41,32],[2,150],[86,243],[208,217],[247,99],[163,6]]","false",""
"visual-search-circle","208","2.2.0","447893","79251","visual_search_trial","470","","f","","","","","","","","","","null","red_blue_mix","10","[""images/Red_Triangle.png"",""images/Blue_Triangle.png"",""images/Red_Circle.png"",""images/Red_Circle.png"",""images/Blue_Circle.png"",""images/Red_Circle.png"",""images/Blue_Circle.png"",""images/Blue_Circle.png"",""images/Red_Circle.png""]","true","[[55,21],[4,90],[10,175],[70,237],[155,246],[226,198],[249,116],[214,38],[138,0]]","true",""
"visual-search-circle","209","2.2.0","450091","79251","visual_search_trial","695","","f","","","","","","","","","","null","red_circle","10","[""images/Red_Triangle.png"",""images/Red_Circle.png"",""images/Red_Circle.png"",""images/Red_Circle.png"",""images/Red_Circle.png"",""images/Red_Circle.png"",""images/Red_Circle.png"",""images/Red_Circle.png"",""images/Red_Circle.png""]","true","[[111,0],[35,38],[0,116],[23,198],[94,246],[179,237],[239,175],[245,90],[194,21]]","true",""
"visual-search-circle","210","2.2.0","452036","79251","visual_search_trial","443","","j","","","","","","","","","","null","red_blue_mix","10","[""images/Blue_Triangle.png"",""images/Blue_Circle.png"",""images/Blue_Circle.png""]","true","[[111,249],[239,74],[23,51]]","false",""
"visual-search-circle","211","2.2.0","454202","79251","visual_search_trial","662","","j","","","","","","","","","","null","blue_triangle","10","[""images/Blue_Triangle.png"",""images/Blue_Triangle.png"",""images/Blue_Triangle.png"",""images/Blue_Triangle.png"",""images/Blue_Triangle.png"",""images/Blue_Triangle.png"",""images/Blue_Triangle.png"",""images/Blue_Triangle.png"",""images/Blue_Triangle.png""]","true","[[114,249],[196,227],[245,157],[238,72],[177,11],[92,4],[22,53],[0,135],[36,213]]","false",""
"visual-search-circle","212","2.2.0","456301","79251","visual_search_trial","596","","j","","","","","","","","","","null","red_circle","10","[""images/Red_Circle.png"",""images/Red_Circle.png"",""images/Red_Circle.png"",""images/Red_Circle.png"",""images/Red_Circle.png"",""images/Red_Circle.png"",""images/Red_Circle.png"",""images/Red_Circle.png"",""images/Red_Circle.png""]","true","[[41,217],[120,249],[201,223],[247,150],[235,66],[171,9],[86,6],[18,58],[1,142]]","false",""
"visual-search-circle","213","2.2.0","458405","79251","visual_search_trial","601","","f","","","","","","","","","","null","red_blue_mix","10","[""images/Red_Triangle.png"",""images/Blue_Triangle.png"",""images/Blue_Triangle.png"",""images/Blue_Circle.png"",""images/Blue_Triangle.png"",""images/Blue_Triangle.png""]","true","[[49,224],[173,240],[249,140],[200,25],[76,9],[0,109]]","true",""
"visual-search-circle","214","2.2.0","460587","79251","visual_search_trial","680","","f","","","","","","","","","","null","red_circle","10","[""images/Red_Triangle.png"",""images/Red_Circle.png"",""images/Red_Circle.png""]","true","[[227,196],[135,0],[11,177]]","true",""
"visual-search-circle","215","2.2.0","462595","79251","visual_search_trial","505","","f","","","","","","","","","","null","blue_triangle","10","[""images/Red_Triangle.png"",""images/Blue_Triangle.png"",""images/Blue_Triangle.png""]","true","[[247,99],[41,32],[86,243]]","true",""
"visual-search-circle","216","2.2.0","465185","79251","visual_search_trial","1088","","j","","","","","","","","","","null","red_blue_mix","10","[""images/Red_Circle.png"",""images/Blue_Circle.png"",""images/Blue_Triangle.png"",""images/Red_Circle.png"",""images/Blue_Circle.png"",""images/Blue_Circle.png"",""images/Red_Circle.png"",""images/Blue_Triangle.png"",""images/Blue_Triangle.png""]","true","[[101,2],[27,46],[0,127],[30,207],[105,248],[189,232],[243,165],[241,80],[185,15]]","false",""
"visual-search-circle","217","2.2.0","467420","79251","visual_search_trial","732","","j","","","","","","","","","","null","blue_triangle","10","[""images/Blue_Triangle.png"",""images/Blue_Triangle.png"",""images/Blue_Triangle.png"",""images/Blue_Triangle.png"",""images/Blue_Triangle.png"",""images/Blue_Triangle.png""]","true","[[219,42],[101,2],[6,84],[30,207],[148,247],[243,165]]","false",""
"visual-search-circle","218","2.2.0","469462","79251","visual_search_trial","540","","f","","","","","","","","","","null","blue_triangle","11","[""images/Red_Triangle.png"",""images/Blue_Triangle.png"",""images/Blue_Triangle.png"",""images/Blue_Triangle.png"",""images/Blue_Triangle.png"",""images/Blue_Triangle.png""]","true","[[35,211],[155,246],[245,159],[214,38],[94,3],[4,90]]","true",""
"visual-search-circle","219","2.2.0","471801","79251","visual_search_trial","836","","f","","","","","","","","","","null","red_circle","11","[""images/Red_Triangle.png"",""images/Red_Circle.png"",""images/Red_Circle.png""]","true","[[41,217],[247,150],[86,6]]","true",""
"visual-search-circle","220","2.2.0","473922","79251","visual_search_trial","616","","f","","","","","","","","","","null","red_blue_mix","11","[""images/Red_Triangle.png"",""images/Blue_Triangle.png"",""images/Blue_Triangle.png"",""images/Red_Circle.png"",""images/Red_Circle.png"",""images/Red_Circle.png"",""images/Red_Circle.png"",""images/Blue_Triangle.png"",""images/Blue_Triangle.png""]","true","[[163,6],[78,9],[14,66],[2,150],[48,223],[129,249],[208,217],[248,142],[231,58]]","true",""
"visual-search-circle","221","2.2.0","476022","79251","visual_search_trial","598","","j","","","","","","","","","","null","blue_triangle","11","[""images/Blue_Triangle.png"",""images/Blue_Triangle.png"",""images/Blue_Triangle.png""]","true","[[153,246],[216,39],[5,88]]","false",""
"visual-search-circle","222","2.2.0","478168","79251","visual_search_trial","643","","j","","","","","","","","","","null","red_blue_mix","11","[""images/Blue_Circle.png"",""images/Red_Circle.png"",""images/Blue_Circle.png"",""images/Red_Circle.png"",""images/Blue_Circle.png"",""images/Blue_Circle.png""]","true","[[159,245],[246,155],[211,35],[90,4],[3,94],[38,214]]","false",""
"visual-search-circle","223","2.2.0","480086","79251","visual_search_trial","416","","f","","","","","","","","","","null","blue_triangle","11","[""images/Red_Triangle.png"",""images/Blue_Triangle.png"",""images/Blue_Triangle.png"",""images/Blue_Triangle.png"",""images/Blue_Triangle.png"",""images/Blue_Triangle.png"",""images/Blue_Triangle.png"",""images/Blue_Triangle.png"",""images/Blue_Triangle.png""]","true","[[42,219],[122,249],[203,222],[247,148],[234,64],[169,8],[84,6],[17,60],[1,144]]","true",""
"visual-search-circle","224","2.2.0","482068","79251","visual_search_trial","480","","j","","","","","","","","","","null","red_circle","11","[""images/Red_Circle.png"",""images/Red_Circle.png"",""images/Red_Circle.png""]","true","[[105,248],[241,80],[27,46]]","false",""
"visual-search-circle","225","2.2.0","483968","79251","visual_search_trial","398","","f","","","","","","","","","","null","red_blue_mix","11","[""images/Red_Triangle.png"",""images/Blue_Triangle.png"",""images/Blue_Triangle.png""]","true","[[9,76],[140,249],[224,49]]","true",""
"visual-search-circle","226","2.2.0","485884","79251","visual_search_trial","413","","j","","","","","","","","","","null","blue_triangle","11","[""images/Blue_Triangle.png"",""images/Blue_Triangle.png"",""images/Blue_Triangle.png"",""images/Blue_Triangle.png"",""images/Blue_Triangle.png"",""images/Blue_Triangle.png""]","true","[[249,111],[175,10],[51,23],[0,138],[74,239],[198,226]]","false",""
"visual-search-circle","227","2.2.0","488069","79251","visual_search_trial","683","","j","","","","","","","","","","null","red_blue_mix","11","[""images/Red_Circle.png"",""images/Blue_Circle.png"",""images/Blue_Triangle.png""]","true","[[247,99],[41,32],[86,243]]","false",""
"visual-search-circle","228","2.2.0","490068","79251","visual_search_trial","496","","j","","","","","","","","","","null","red_circle","11","[""images/Red_Circle.png"",""images/Red_Circle.png"",""images/Red_Circle.png"",""images/Red_Circle.png"",""images/Red_Circle.png"",""images/Red_Circle.png""]","true","[[234,64],[127,0],[17,60],[15,185],[122,249],[232,189]]","false",""
"visual-search-circle","229","2.2.0","492220","79251","visual_search_trial","650","","j","","","","","","","","","","null","red_blue_mix","11","[""images/Red_Circle.png"",""images/Blue_Circle.png"",""images/Red_Circle.png"",""images/Blue_Circle.png"",""images/Red_Circle.png"",""images/Blue_Circle.png"",""images/Blue_Triangle.png"",""images/Blue_Triangle.png"",""images/Blue_Triangle.png""]","true","[[236,68],[173,9],[88,5],[20,56],[0,140],[39,216],[118,249],[200,224],[246,153]]","false",""
"visual-search-circle","230","2.2.0","494278","79251","visual_search_trial","555","","f","","","","","","","","","","null","blue_triangle","11","[""images/Red_Triangle.png"",""images/Blue_Triangle.png"",""images/Blue_Triangle.png""]","true","[[198,23],[0,111],[175,239]]","true",""
"visual-search-circle","231","2.2.0","496384","79251","visual_search_trial","604","","f","","","","","","","","","","null","red_circle","11","[""images/Red_Triangle.png"",""images/Red_Circle.png"",""images/Red_Circle.png"",""images/Red_Circle.png"",""images/Red_Circle.png"",""images/Red_Circle.png""]","true","[[7,82],[29,205],[146,248],[242,167],[220,44],[103,1]]","true",""
"visual-search-circle","232","2.2.0","498421","79251","visual_search_trial","535","","f","","","","","","","","","","null","red_blue_mix","11","[""images/Red_Triangle.png"",""images/Blue_Triangle.png"",""images/Blue_Triangle.png"",""images/Red_Circle.png"",""images/Red_Circle.png"",""images/Blue_Circle.png""]","true","[[223,48],[107,1],[9,78],[26,201],[142,248],[240,171]]","true",""
"visual-search-circle","233","2.2.0","500401","79251","visual_search_trial","476","","j","","","","","","","","","","null","red_circle","11","[""images/Red_Circle.png"",""images/Red_Circle.png"",""images/Red_Circle.png"",""images/Red_Circle.png"",""images/Red_Circle.png"",""images/Red_Circle.png"",""images/Red_Circle.png"",""images/Red_Circle.png"",""images/Red_Circle.png""]","true","[[140,0],[56,20],[5,88],[9,173],[68,236],[153,246],[224,200],[249,118],[216,39]]","false",""
"visual-search-circle","234","2.2.0","502418","79251","visual_search_trial","514","","j","","","","","","","","","","null","blue_triangle","11","[""images/Blue_Triangle.png"",""images/Blue_Triangle.png"",""images/Blue_Triangle.png"",""images/Blue_Triangle.png"",""images/Blue_Triangle.png"",""images/Blue_Triangle.png"",""images/Blue_Triangle.png"",""images/Blue_Triangle.png"",""images/Blue_Triangle.png""]","true","[[4,157],[53,227],[135,249],[213,213],[249,135],[227,53],[157,4],[72,11],[11,72]]","false",""
