"trial_type","trial_index","plugin_version","time_elapsed","sona_id","phase","rt","stimulus","response","consented","required_key","view_history","question_order","success","timeout","failed_images","failed_audio","failed_video","set_size","distractor_type","block","stimuli_list","correct","locations","target_present","break_key"
"pavlovia","0","null","1274","78570","","","","","","","","","","","","","","","","","","","","",""
"html-button-response","1","2.1.0","116299","78570","informed_consent","115023","
    <div style=""max-width: 900px; margin: 0 auto; padding: 20px; text-align: left; line-height: 1.6;"">
      <h1 style=""text-align: center; color: #333; font-size: 24px; margin-bottom: 10px; font-weight: bold;"">
        INFORMED CONSENT INFORMATION
      </h1>
      <h2 style=""text-align: center; color: #333; font-size: 22px; margin-bottom: 20px; font-weight: bold;"">
        FOR RESEARCH PARTICIPATION
      </h2>
      
      <p style=""margin-bottom: 10px;""><strong>Study Title:</strong> The Effects of Mindfulness and Attention on Life Satisfaction and Memory</p>
      <p style=""margin-bottom: 10px;""><strong>Principal Investigator:</strong> Ella Bremmer</p>
      <p style=""margin-bottom: 10px;""><strong>Co-Principal Investigator:</strong> Dr. Gregory Cox</p>
      <p style=""margin-bottom: 20px;""><strong>IRB Study Number:</strong> STUDY00006288</p>

      <p style=""margin-bottom: 15px;"">I am a student at the University at Albany, in the Department of Psychology. I am planning to conduct a research study, which I invite you to take part in.</p>
      
      <p style=""margin-bottom: 25px;"">This form has important information about the reasons for doing this study, what we will ask you to do, and the way we would like to use the information we collect about you.</p>

      <h3 style=""color: #333; font-size: 18px; margin-top: 25px; margin-bottom: 10px; font-weight: bold;"">
        Why are you doing this study?
      </h3>
      <p style=""margin-bottom: 15px;"">You are being asked to participate in a research study that aims to understand if there is a relationship between mindfulness, the ability to pay attention, and life satisfaction.</p>
      
      <p style=""margin-bottom: 25px;"">The purpose of this study is to investigate if having better control over one's attention influences overall life satisfaction. Your participation will help us better understand if mindfulness and attention do have a significant effect on life satisfaction (i.e., how people feel about their lives overall). Then you will be asked to perform a conjunction visual search task to test your capacity to direct your attention over a sustained period.</p>

      <h3 style=""color: #333; font-size: 18px; margin-top: 25px; margin-bottom: 10px; font-weight: bold;"">
        Why am I eligible to participate in this study?
      </h3>
      <p style=""margin-bottom: 25px;"">You are eligible to participate because you are a student at UAlbany, are at least 18 years old, and are proficient in English.</p>

      <h3 style=""color: #333; font-size: 18px; margin-top: 25px; margin-bottom: 10px; font-weight: bold;"">
        What will I do if I choose to be in this study?
      </h3>
      <p style=""margin-bottom: 10px;"">If you choose to take part in our study, you will do the following:</p>
      <p style=""margin-bottom: 8px; margin-left: 20px;"">1. Read and agree to the informed consent.</p>
      <p style=""margin-bottom: 8px; margin-left: 40px;"">a. If you choose not to agree to the informed consent, you will be taken back to the SONA site.</p>
      <p style=""margin-bottom: 8px; margin-left: 20px;"">2. Complete a demographic questionnaire that asks about your age, English proficiency, gender, and race.</p>
      <p style=""margin-bottom: 8px; margin-left: 20px;"">3. Read instructions for the visual search task, which asks you to indicate if a target (a red triangle) is present among various other colored shapes. You should press the ""F"" key if a red triangle is present, or the ""J"" key if the target is absent.</p>
      <p style=""margin-bottom: 8px; margin-left: 20px;"">4. You will be asked to respond to 270 visual search trials, whith the opportunity to take short breaks as you go</p>
      <p style=""margin-bottom: 8px; margin-left: 20px;"">5. You will complete the Mindfulness Attention Awareness Scale (MAAS), the Satisfaction With Life Scale (SWLS), and the Big Five Inventory.</p>
      <p style=""margin-bottom: 25px; margin-left: 20px;"">6.	After all questionnaires are completed, participants will be thanked for their time and will be provided the study debriefing. Following the debriefing, you will be sent back to the SONA research site.</p>

      <h3 style=""color: #333; font-size: 18px; margin-top: 25px; margin-bottom: 10px; font-weight: bold;"">
        For how long will I participate?
      </h3>
      <p style=""margin-bottom: 25px;"">This study is a single online session that you can complete on a computer. The study can be completed in less than 30 minutes but could require as long as 45 minutes to complete.</p>

      <h3 style=""color: #333; font-size: 18px; margin-top: 25px; margin-bottom: 10px; font-weight: bold;"">
        Where will I need to go to participate?
      </h3>
      <p style=""margin-bottom: 25px;"">All study procedures will take place online and can be completed wherever you have internet connection.</p>

      <h3 style=""color: #333; font-size: 18px; margin-top: 25px; margin-bottom: 10px; font-weight: bold;"">
        Are there any costs I should be aware of?
      </h3>
      <p style=""margin-bottom: 25px;"">Participation is not expected to incur cost to participants. Free internet access is available anywhere on campus and in the university library.</p>

      <h3 style=""color: #333; font-size: 18px; margin-top: 25px; margin-bottom: 10px; font-weight: bold;"">
        What are the possible risks or discomforts?
      </h3>
      <p style=""margin-bottom: 15px;"">As with all research, there is a chance that confidentiality of the information we collect from you could be breached – we will take steps to minimize this risk, as discussed in more detail below.</p>
      
      <p style=""margin-bottom: 25px;"">The risks associated with participating in this study are minimal; however, you may experience mild discomfort when reflecting on your mindfulness or life satisfaction when answering questionnaires in the study. To help minimize this, you can withdraw from the study at any time without any consequences. The study will take place online, and you will have the opportunity to take breaks while completing the survey to reduce the risk of eye strain associated with the use of electronic devices.</p>

      <h3 style=""color: #333; font-size: 18px; margin-top: 25px; margin-bottom: 10px; font-weight: bold;"">
        What are the possible benefits for me or others?
      </h3>
      <p style=""margin-bottom: 25px;"">While there are no direct personal benefits to participants of this study, you may find value in reflecting on your mindfulness, attention, and its impact on life satisfaction by completing this survey. The data you contribute may help advance society's understanding of how mindfulness and attention relate to overall well-being, potentially informing future programs or interventions aimed at improving student mental health, attention, and life satisfaction.</p>

      <h3 style=""color: #333; font-size: 18px; margin-top: 25px; margin-bottom: 10px; font-weight: bold;"">
        Will I receive compensation for my participation?
      </h3>
      <p style=""margin-bottom: 25px;"">SONA partial class credit will be awarded via the Psychology Department SONA research pool after you complete the survey in its entirety. Participants who withdraw before completing the survey will not receive partial credit. You will not receive monetary compensation for your participation in this study.</p>

      <h3 style=""color: #333; font-size: 18px; margin-top: 25px; margin-bottom: 10px; font-weight: bold;"">
        How will you protect the information you collect about me, and how will that information be shared?
      </h3>
      <p style=""margin-bottom: 15px;"">Results of this study may be used in publications and presentations. Your data will be handled as confidentially as possible, and no identifiable information will be collected to link your data back to you. If results of this study are published or presented, only de-identified summaries of data will be used.</p>
      
      <p style=""margin-bottom: 25px;"">To minimize the risks to confidentiality, all data will be collected anonymously via Pavlovia.org which uses encryption to protect information (https://pavlovia.org/docs/home/ethics). Only the student researcher (Ella Bremmer), mentor (Pierce Johnson), and faculty advisor (Gregory Cox) will have password-protected access to the data. Data will be stored on secure, university approved computers.</p>

      <h3 style=""color: #333; font-size: 18px; margin-top: 25px; margin-bottom: 10px; font-weight: bold;"">
        Will my data be used in future research?
      </h3>
      <p style=""margin-bottom: 25px;"">No personal identifiers will be collected in the data you provide us. Data will not be used in future research, and will be deleted after the required retention period.</p>

      <h3 style=""color: #333; font-size: 18px; margin-top: 25px; margin-bottom: 10px; font-weight: bold;"">
        What are my rights as a research participant?
      </h3>
      <p style=""margin-bottom: 15px;"">Participation in this study is voluntary. You do not have to answer any question you do not want to answer. If at any time and for any reason, you would prefer not to participate in this study, please feel free not to. If at any time you would like to stop participating, you are welcome to stop. You can take a break or stop altogether. You may withdraw from this study at any time, and you will not be penalized in any way for deciding to stop participation.</p>
      
      <p style=""margin-bottom: 25px;"">If you decide to withdraw from this study, any information collected from you before withdrawing will not be used, and your data will be deleted.</p>

      <h3 style=""color: #333; font-size: 18px; margin-top: 25px; margin-bottom: 10px; font-weight: bold;"">
        What if I am a University at Albany student or employee?
      </h3>
      <p style=""margin-bottom: 25px;"">You may choose not to participate or to stop participating in this research at any time. This will not affect your class standing, grades, employment, or any other aspects of your relationship with the University at Albany.</p>

      <h3 style=""color: #333; font-size: 18px; margin-top: 25px; margin-bottom: 10px; font-weight: bold;"">
        Who can I contact if I have questions or concerns about this research study?
      </h3>
      <p style=""margin-bottom: 15px;"">If you have questions, please feel free to stop and email the investigator, Ella Bremmer (ebremmer@albany.edu) or advisors, Pierce Johnson (pjohnson4@albany.edu) and Dr. Greg Cox (gecox@albany.edu). If you have questions later, you may also contact the researchers.</p>
      
      <p style=""margin-bottom: 10px;"">If you have any questions about your rights as a participant in this research, you can contact the following office at the University at Albany:</p>
      
      <p style=""margin-bottom: 5px; margin-left: 20px;"">Institutional Review Board</p>
      <p style=""margin-bottom: 5px; margin-left: 20px;"">University at Albany</p>
      <p style=""margin-bottom: 5px; margin-left: 20px;"">Office of Regulatory and Research Compliance</p>
      <p style=""margin-bottom: 5px; margin-left: 20px;"">1400 Washington Ave, Biology 227</p>
      <p style=""margin-bottom: 5px; margin-left: 20px;"">Albany, NY 12222</p>
      <p style=""margin-bottom: 5px; margin-left: 20px;"">Phone: 1-866-857-5459</p>
      <p style=""margin-bottom: 25px; margin-left: 20px;"">Email: rco@albany.edu</p>

      <h3 style=""color: #333; font-size: 18px; margin-top: 30px; margin-bottom: 10px; font-weight: bold;"">
        Consent
      </h3>
      <p style=""margin-bottom: 20px;"">I have read this form and the research study has been explained to me. I have been given the opportunity to ask questions and my questions have been answered. If I have additional questions, I have been told whom to contact. I agree to participate in the research study described above. I understand that I have the opportunity to download and save a copy of this form for my records.</p>

      <div style=""background-color: #f9f9f9; border: 2px solid #4CAF50; border-radius: 5px; padding: 20px; margin-top: 20px; margin-bottom: 20px;"">
        <p style=""margin-bottom: 15px; font-weight: bold;"">To save a copy of this consent form for your records, press Ctrl+P (Windows/Linux) or Cmd+P (Mac) and select ""Save as PDF"".</p>
        <p style=""margin-bottom: 0; font-weight: bold;"">By clicking ""I Agree"" below, I confirm that I agree to participate in the research study described above, and that doing so serves as my written signature consenting to take part in the study.</p>
      </div>
    </div>
  ","0","true","","","","","","","","","","","","","","","",""
"instructions","3","2.1.0","143944","78570","intro_instructions","27644","","","","f","[{""page_index"":0,""viewing_time"":27644}]","","","","","","","","","","","","","",""
"html-keyboard-response","4","2.1.0","145955","78570","intermediate_slide_demo","null","<p style=""font-size:4vw"">Demographic Questionnaire</p>","null","","","","","","","","","","","","","","","","",""
"survey-multi-choice","5","2.1.0","155536","78570","demographics_english","9579","","{""english"":""Strongly agree""}","","","","[0]","","","","","","","","","","","","",""
"survey-text","7","2.1.0","159978","78570","demographics_age","4439","","{""age"":""20""}","","","","","","","","","","","","","","","","",""
"survey-multi-select","9","2.1.0","164514","78570","demographics_gender","4534","","{""gender"":[""Man""]}","","","","[0]","","","","","","","","","","","","",""
"survey-multi-choice","11","2.1.0","168581","78570","demographics_race","4066","","{""race"":""Hispanic or Latino""}","","","","[0]","","","","","","","","","","","","",""
"html-keyboard-response","12","2.1.0","170592","78570","intermediate_slide_VS","null","<p style=""font-size:4vw"">Visual Search Task</p>","null","","","","","","","","","","","","","","","","",""
"preload","13","2.1.0","170864","78570","image_preload","","","","","","","","true","false","[]","[]","[]","","","","","","","",""
"html-button-response","14","2.1.0","200355","78570","vs_instructions","29490","<p>On the following screens, you will see a series of colored shapes (triangles, squares, and circles) appear.</p>
    <p>Please Press 'F' if there <strong>is</strong> a red triangle among the shapes you see.</p>
    <p>Press 'J' if there is <strong>not</strong> a red triangle among the shapes you see.</p>","0","","","","","","","","","","","","","","","","",""
"visual-search-circle","15","2.2.0","203597","78570","visual_search_trial","1739","","j","","","","","","","","","","null","blue_triangle","0","[""images/Blue_Triangle.png"",""images/Blue_Triangle.png"",""images/Blue_Triangle.png"",""images/Blue_Triangle.png"",""images/Blue_Triangle.png"",""images/Blue_Triangle.png""]","true","[[167,242],[248,146],[205,29],[82,7],[1,103],[44,220]]","false",""
"visual-search-circle","16","2.2.0","206875","78570","visual_search_trial","1770","","f","","","","","","","","","","null","red_blue_mix","0","[""images/Red_Triangle.png"",""images/Red_Circle.png"",""images/Blue_Triangle.png"",""images/Red_Circle.png"",""images/Blue_Circle.png"",""images/Red_Circle.png"",""images/Blue_Triangle.png"",""images/Blue_Circle.png"",""images/Red_Circle.png""]","true","[[246,96],[200,25],[118,0],[39,33],[0,109],[20,193],[88,244],[173,240],[236,181]]","true",""
"visual-search-circle","17","2.2.0","210168","78570","visual_search_trial","1781","","j","","","","","","","","","","null","red_circle","0","[""images/Red_Circle.png"",""images/Red_Circle.png"",""images/Red_Circle.png"",""images/Red_Circle.png"",""images/Red_Circle.png"",""images/Red_Circle.png""]","true","[[56,20],[0,131],[68,236],[193,229],[249,118],[181,13]]","false",""
"visual-search-circle","18","2.2.0","213000","78570","visual_search_trial","1324","","j","","","","","","","","","","null","red_blue_mix","0","[""images/Blue_Circle.png"",""images/Blue_Circle.png"",""images/Red_Circle.png"",""images/Blue_Circle.png"",""images/Blue_Circle.png"",""images/Blue_Triangle.png""]","true","[[109,0],[9,76],[25,200],[140,249],[240,173],[224,49]]","false",""
"visual-search-circle","19","2.2.0","215389","78570","visual_search_trial","871","","j","","","","","","","","","","null","blue_triangle","0","[""images/Blue_Triangle.png"",""images/Blue_Triangle.png"",""images/Blue_Triangle.png""]","true","[[159,245],[211,35],[3,94]]","false",""
"visual-search-circle","20","2.2.0","217598","78570","visual_search_trial","704","","f","","","","","","","","","","null","red_circle","0","[""images/Red_Triangle.png"",""images/Red_Circle.png"",""images/Red_Circle.png"",""images/Red_Circle.png"",""images/Red_Circle.png"",""images/Red_Circle.png""]","true","[[35,38],[4,159],[94,246],[214,211],[245,90],[155,3]]","true",""
"visual-search-circle","21","2.2.0","219826","78570","visual_search_trial","722","","f","","","","","","","","","","null","red_blue_mix","0","[""images/Red_Triangle.png"",""images/Blue_Circle.png"",""images/Red_Circle.png""]","true","[[8,80],[144,248],[222,46]]","true",""
"visual-search-circle","22","2.2.0","222045","78570","visual_search_trial","711","","f","","","","","","","","","","null","blue_triangle","0","[""images/Red_Triangle.png"",""images/Blue_Triangle.png"",""images/Blue_Triangle.png""]","true","[[155,246],[214,38],[4,90]]","true",""
"visual-search-circle","23","2.2.0","224490","78570","visual_search_trial","939","","j","","","","","","","","","","null","red_blue_mix","0","[""images/Blue_Triangle.png"",""images/Blue_Triangle.png"",""images/Red_Circle.png"",""images/Red_Circle.png"",""images/Blue_Circle.png"",""images/Red_Circle.png"",""images/Blue_Triangle.png"",""images/Red_Circle.png"",""images/Blue_Circle.png""]","true","[[189,232],[243,165],[241,80],[185,15],[101,2],[27,46],[0,127],[30,207],[105,248]]","false",""
"visual-search-circle","24","2.2.0","226703","78570","visual_search_trial","701","","j","","","","","","","","","","null","blue_triangle","0","[""images/Blue_Triangle.png"",""images/Blue_Triangle.png"",""images/Blue_Triangle.png"",""images/Blue_Triangle.png"",""images/Blue_Triangle.png"",""images/Blue_Triangle.png"",""images/Blue_Triangle.png"",""images/Blue_Triangle.png"",""images/Blue_Triangle.png""]","true","[[74,239],[159,245],[228,194],[249,111],[211,35],[133,0],[51,23],[3,94],[12,179]]","false",""
"visual-search-circle","25","2.2.0","228977","78570","visual_search_trial","758","","j","","","","","","","","","","null","red_circle","0","[""images/Red_Circle.png"",""images/Red_Circle.png"",""images/Red_Circle.png""]","true","[[187,16],[0,125],[187,233]]","false",""
"visual-search-circle","26","2.2.0","231236","78570","visual_search_trial","751","","j","","","","","","","","","","null","red_blue_mix","0","[""images/Blue_Triangle.png"",""images/Blue_Circle.png"",""images/Red_Circle.png""]","true","[[144,248],[222,46],[8,80]]","false",""
"visual-search-circle","27","2.2.0","233581","78570","visual_search_trial","832","","j","","","","","","","","","","null","red_circle","0","[""images/Red_Circle.png"",""images/Red_Circle.png"",""images/Red_Circle.png"",""images/Red_Circle.png"",""images/Red_Circle.png"",""images/Red_Circle.png"",""images/Red_Circle.png"",""images/Red_Circle.png"",""images/Red_Circle.png""]","true","[[48,26],[2,99],[14,183],[78,240],[163,243],[231,191],[248,107],[208,32],[129,0]]","false",""
"visual-search-circle","28","2.2.0","235794","78570","visual_search_trial","705","","f","","","","","","","","","","null","blue_triangle","0","[""images/Red_Triangle.png"",""images/Blue_Triangle.png"",""images/Blue_Triangle.png"",""images/Blue_Triangle.png"",""images/Blue_Triangle.png"",""images/Blue_Triangle.png""]","true","[[189,17],[64,15],[0,122],[60,232],[185,234],[249,127]]","true",""
"visual-search-circle","29","2.2.0","237888","78570","visual_search_trial","588","","f","","","","","","","","","","null","red_circle","0","[""images/Red_Triangle.png"",""images/Red_Circle.png"",""images/Red_Circle.png"",""images/Red_Circle.png"",""images/Red_Circle.png"",""images/Red_Circle.png"",""images/Red_Circle.png"",""images/Red_Circle.png"",""images/Red_Circle.png""]","true","[[17,60],[1,144],[42,219],[122,249],[203,222],[247,148],[234,64],[169,8],[84,6]]","true",""
"visual-search-circle","30","2.2.0","240006","78570","visual_search_trial","603","","f","","","","","","","","","","null","blue_triangle","0","[""images/Red_Triangle.png"",""images/Blue_Triangle.png"",""images/Blue_Triangle.png"",""images/Blue_Triangle.png"",""images/Blue_Triangle.png"",""images/Blue_Triangle.png"",""images/Blue_Triangle.png"",""images/Blue_Triangle.png"",""images/Blue_Triangle.png""]","true","[[242,167],[242,82],[187,16],[103,1],[29,44],[0,124],[29,205],[103,248],[187,233]]","true",""
"visual-search-circle","31","2.2.0","242240","78570","visual_search_trial","728","","f","","","","","","","","","","null","red_blue_mix","0","[""images/Red_Triangle.png"",""images/Red_Circle.png"",""images/Blue_Circle.png"",""images/Blue_Circle.png"",""images/Blue_Triangle.png"",""images/Red_Circle.png""]","true","[[210,33],[88,5],[3,96],[39,216],[161,244],[246,153]]","true",""
"visual-search-circle","32","2.2.0","244368","78570","visual_search_trial","614","","f","","","","","","","","","","null","red_circle","0","[""images/Red_Triangle.png"",""images/Red_Circle.png"",""images/Red_Circle.png""]","true","[[6,86],[150,247],[217,41]]","true",""
"visual-search-circle","33","2.2.0","246497","78570","visual_search_trial","610","","f","","","","","","","","","","null","red_circle","1","[""images/Red_Triangle.png"",""images/Red_Circle.png"",""images/Red_Circle.png"",""images/Red_Circle.png"",""images/Red_Circle.png"",""images/Red_Circle.png"",""images/Red_Circle.png"",""images/Red_Circle.png"",""images/Red_Circle.png""]","true","[[198,23],[116,0],[38,35],[0,111],[21,194],[90,245],[175,239],[237,179],[246,94]]","true",""
"visual-search-circle","34","2.2.0","248570","78570","visual_search_trial","561","","f","","","","","","","","","","null","blue_triangle","1","[""images/Red_Triangle.png"",""images/Blue_Triangle.png"",""images/Blue_Triangle.png""]","true","[[66,235],[249,120],[58,18]]","true",""
"visual-search-circle","35","2.2.0","250683","78570","visual_search_trial","604","","j","","","","","","","","","","null","red_circle","1","[""images/Red_Circle.png"",""images/Red_Circle.png"",""images/Red_Circle.png"",""images/Red_Circle.png"",""images/Red_Circle.png"",""images/Red_Circle.png"",""images/Red_Circle.png"",""images/Red_Circle.png"",""images/Red_Circle.png""]","true","[[249,114],[213,36],[135,0],[53,22],[4,92],[11,177],[72,238],[157,245],[227,196]]","false",""
"visual-search-circle","36","2.2.0","252691","78570","visual_search_trial","502","","f","","","","","","","","","","null","blue_triangle","1","[""images/Red_Triangle.png"",""images/Blue_Triangle.png"",""images/Blue_Triangle.png"",""images/Blue_Triangle.png"",""images/Blue_Triangle.png"",""images/Blue_Triangle.png""]","true","[[248,103],[167,7],[44,29],[1,146],[82,242],[205,220]]","true",""
"visual-search-circle","37","2.2.0","254844","78570","visual_search_trial","643","","f","","","","","","","","","","null","red_blue_mix","1","[""images/Red_Triangle.png"",""images/Blue_Triangle.png"",""images/Blue_Circle.png""]","true","[[231,191],[129,0],[14,183]]","true",""
"visual-search-circle","38","2.2.0","256922","78570","visual_search_trial","574","","j","","","","","","","","","","null","blue_triangle","1","[""images/Blue_Triangle.png"",""images/Blue_Triangle.png"",""images/Blue_Triangle.png""]","true","[[127,0],[15,185],[232,189]]","false",""
"visual-search-circle","39","2.2.0","259046","78570","visual_search_trial","615","","j","","","","","","","","","","null","red_circle","1","[""images/Red_Circle.png"",""images/Red_Circle.png"",""images/Red_Circle.png"",""images/Red_Circle.png"",""images/Red_Circle.png"",""images/Red_Circle.png""]","true","[[249,114],[177,11],[53,22],[0,135],[72,238],[196,227]]","false",""
"visual-search-circle","40","2.2.0","261460","78570","visual_search_trial","897","","j","","","","","","","","","","null","red_blue_mix","1","[""images/Red_Circle.png"",""images/Blue_Circle.png"",""images/Blue_Circle.png"",""images/Red_Circle.png"",""images/Red_Circle.png"",""images/Blue_Triangle.png"",""images/Blue_Circle.png"",""images/Blue_Circle.png"",""images/Red_Circle.png""]","true","[[94,246],[179,237],[239,175],[245,90],[194,21],[111,0],[35,38],[0,116],[23,198]]","false",""
"visual-search-circle","41","2.2.0","263539","78570","visual_search_trial","561","","j","","","","","","","","","","null","blue_triangle","1","[""images/Blue_Triangle.png"",""images/Blue_Triangle.png"",""images/Blue_Triangle.png"",""images/Blue_Triangle.png"",""images/Blue_Triangle.png"",""images/Blue_Triangle.png""]","true","[[114,249],[227,196],[238,72],[135,0],[22,53],[11,177]]","false",""
"visual-search-circle","42","2.2.0","265772","78570","visual_search_trial","721","","j","","","","","","","","","","null","red_blue_mix","1","[""images/Red_Circle.png"",""images/Blue_Triangle.png"",""images/Blue_Circle.png"",""images/Blue_Circle.png"",""images/Blue_Triangle.png"",""images/Blue_Triangle.png""]","true","[[22,196],[135,249],[238,177],[227,53],[114,0],[11,72]]","false",""
"visual-search-circle","43","2.2.0","267805","78570","visual_search_trial","525","","j","","","","","","","","","","null","red_circle","1","[""images/Red_Circle.png"",""images/Red_Circle.png"",""images/Red_Circle.png""]","true","[[7,82],[146,248],[220,44]]","false",""
"visual-search-circle","44","2.2.0","269869","78570","visual_search_trial","553","","j","","","","","","","","","","null","blue_triangle","1","[""images/Blue_Triangle.png"",""images/Blue_Triangle.png"",""images/Blue_Triangle.png"",""images/Blue_Triangle.png"",""images/Blue_Triangle.png"",""images/Blue_Triangle.png"",""images/Blue_Triangle.png"",""images/Blue_Triangle.png"",""images/Blue_Triangle.png""]","true","[[163,6],[78,9],[14,66],[2,150],[48,223],[129,249],[208,217],[248,142],[231,58]]","false",""
"visual-search-circle","45","2.2.0","271982","78570","visual_search_trial","598","","f","","","","","","","","","","null","red_circle","1","[""images/Red_Triangle.png"",""images/Red_Circle.png"",""images/Red_Circle.png""]","true","[[64,15],[60,232],[249,127]]","true",""
"visual-search-circle","46","2.2.0","273999","78570","visual_search_trial","503","","j","","","","","","","","","","null","red_blue_mix","1","[""images/Red_Circle.png"",""images/Red_Circle.png"",""images/Red_Circle.png""]","true","[[181,236],[193,20],[0,118]]","false",""
"visual-search-circle","47","2.2.0","276123","78570","visual_search_trial","618","","f","","","","","","","","","","null","blue_triangle","1","[""images/Red_Triangle.png"",""images/Blue_Triangle.png"",""images/Blue_Triangle.png"",""images/Blue_Triangle.png"",""images/Blue_Triangle.png"",""images/Blue_Triangle.png"",""images/Blue_Triangle.png"",""images/Blue_Triangle.png"",""images/Blue_Triangle.png""]","true","[[243,165],[241,80],[185,15],[101,2],[27,46],[0,127],[30,207],[105,248],[189,232]]","true",""
"visual-search-circle","48","2.2.0","278292","78570","visual_search_trial","657","","f","","","","","","","","","","null","red_blue_mix","1","[""images/Red_Triangle.png"",""images/Red_Circle.png"",""images/Blue_Triangle.png"",""images/Red_Circle.png"",""images/Blue_Circle.png"",""images/Blue_Circle.png"",""images/Blue_Circle.png"",""images/Blue_Circle.png"",""images/Blue_Triangle.png""]","true","[[208,32],[129,0],[48,26],[2,99],[14,183],[78,240],[163,243],[231,191],[248,107]]","true",""
"visual-search-circle","49","2.2.0","280435","78570","visual_search_trial","632","","f","","","","","","","","","","null","red_circle","1","[""images/Red_Triangle.png"",""images/Red_Circle.png"",""images/Red_Circle.png"",""images/Red_Circle.png"",""images/Red_Circle.png"",""images/Red_Circle.png""]","true","[[159,4],[38,35],[3,155],[90,245],[211,214],[246,94]]","true",""
"visual-search-circle","50","2.2.0","282603","78570","visual_search_trial","655","","f","","","","","","","","","","null","red_blue_mix","1","[""images/Red_Triangle.png"",""images/Blue_Circle.png"",""images/Blue_Triangle.png"",""images/Blue_Circle.png"",""images/Red_Circle.png"",""images/Blue_Circle.png""]","true","[[125,0],[16,62],[16,187],[125,250],[233,187],[233,62]]","true",""
"html-keyboard-response","51","2.1.0","290375","78570","break","7771","<p>Great job so far! Please rest for a few seconds before continuing.</p>
                 <p>Press the <strong>L</strong> key on your keyboard to continue.</p>","l","","","","","","","","","","","","","","","","","L"
"visual-search-circle","52","2.2.0","292502","78570","visual_search_trial","622","","f","","","","","","","","","","null","red_circle","2","[""images/Red_Triangle.png"",""images/Red_Circle.png"",""images/Red_Circle.png""]","true","[[22,53],[114,249],[238,72]]","true",""
"visual-search-circle","53","2.2.0","294621","78570","visual_search_trial","614","","j","","","","","","","","","","null","blue_triangle","2","[""images/Blue_Triangle.png"",""images/Blue_Triangle.png"",""images/Blue_Triangle.png""]","true","[[36,36],[92,245],[245,92]]","false",""
"visual-search-circle","54","2.2.0","296835","78570","visual_search_trial","706","","f","","","","","","","","","","null","red_blue_mix","2","[""images/Red_Triangle.png"",""images/Blue_Triangle.png"",""images/Red_Circle.png"",""images/Blue_Circle.png"",""images/Blue_Triangle.png"",""images/Red_Circle.png"",""images/Blue_Circle.png"",""images/Blue_Triangle.png"",""images/Blue_Triangle.png""]","true","[[249,116],[214,38],[138,0],[55,21],[4,90],[10,175],[70,237],[155,246],[226,198]]","true",""
"visual-search-circle","55","2.2.0","298893","78570","visual_search_trial","547","","j","","","","","","","","","","null","blue_triangle","2","[""images/Blue_Triangle.png"",""images/Blue_Triangle.png"",""images/Blue_Triangle.png"",""images/Blue_Triangle.png"",""images/Blue_Triangle.png"",""images/Blue_Triangle.png"",""images/Blue_Triangle.png"",""images/Blue_Triangle.png"",""images/Blue_Triangle.png""]","true","[[249,116],[214,38],[138,0],[55,21],[4,90],[10,175],[70,237],[155,246],[226,198]]","false",""
"visual-search-circle","56","2.2.0","300908","78570","visual_search_trial","505","","f","","","","","","","","","","null","red_blue_mix","2","[""images/Red_Triangle.png"",""images/Blue_Triangle.png"",""images/Red_Circle.png"",""images/Blue_Circle.png"",""images/Red_Circle.png"",""images/Blue_Circle.png""]","true","[[226,51],[111,0],[10,74],[23,198],[138,249],[239,175]]","true",""
"visual-search-circle","57","2.2.0","302984","78570","visual_search_trial","559","","j","","","","","","","","","","null","blue_triangle","2","[""images/Blue_Triangle.png"",""images/Blue_Triangle.png"",""images/Blue_Triangle.png"",""images/Blue_Triangle.png"",""images/Blue_Triangle.png"",""images/Blue_Triangle.png""]","true","[[1,144],[80,241],[203,222],[248,105],[169,8],[46,27]]","false",""
"visual-search-circle","58","2.2.0","305277","78570","visual_search_trial","789","","j","","","","","","","","","","null","red_blue_mix","2","[""images/Blue_Triangle.png"",""images/Blue_Circle.png"",""images/Blue_Circle.png"",""images/Red_Circle.png"",""images/Blue_Triangle.png"",""images/Blue_Circle.png"",""images/Blue_Triangle.png"",""images/Red_Circle.png"",""images/Blue_Circle.png""]","true","[[249,133],[226,51],[155,3],[70,12],[10,74],[4,159],[55,228],[138,249],[214,211]]","false",""
"visual-search-circle","59","2.2.0","307306","78570","visual_search_trial","520","","f","","","","","","","","","","null","red_circle","2","[""images/Red_Triangle.png"",""images/Red_Circle.png"",""images/Red_Circle.png"",""images/Red_Circle.png"",""images/Red_Circle.png"",""images/Red_Circle.png""]","true","[[169,241],[248,144],[203,27],[80,8],[1,105],[46,222]]","true",""
"visual-search-circle","60","2.2.0","309329","78570","visual_search_trial","515","","f","","","","","","","","","","null","blue_triangle","2","[""images/Red_Triangle.png"",""images/Blue_Triangle.png"",""images/Blue_Triangle.png""]","true","[[35,211],[245,159],[94,3]]","true",""
"visual-search-circle","61","2.2.0","311333","78570","visual_search_trial","495","","j","","","","","","","","","","null","red_circle","2","[""images/Red_Circle.png"",""images/Red_Circle.png"",""images/Red_Circle.png""]","true","[[56,20],[68,236],[249,118]]","false",""
"visual-search-circle","62","2.2.0","313431","78570","visual_search_trial","582","","f","","","","","","","","","","null","blue_triangle","2","[""images/Red_Triangle.png"",""images/Blue_Triangle.png"",""images/Blue_Triangle.png"",""images/Blue_Triangle.png"",""images/Blue_Triangle.png"",""images/Blue_Triangle.png"",""images/Blue_Triangle.png"",""images/Blue_Triangle.png"",""images/Blue_Triangle.png""]","true","[[49,224],[131,249],[210,216],[249,140],[229,56],[161,5],[76,9],[13,68],[3,153]]","true",""
"visual-search-circle","63","2.2.0","315432","78570","visual_search_trial","489","","j","","","","","","","","","","null","red_circle","2","[""images/Red_Circle.png"",""images/Red_Circle.png"",""images/Red_Circle.png"",""images/Red_Circle.png"",""images/Red_Circle.png"",""images/Red_Circle.png""]","true","[[84,6],[2,101],[42,219],[165,243],[247,148],[207,30]]","false",""
"visual-search-circle","64","2.2.0","317401","78570","visual_search_trial","458","","f","","","","","","","","","","null","red_blue_mix","2","[""images/Red_Triangle.png"",""images/Red_Circle.png"",""images/Red_Circle.png""]","true","[[243,163],[99,2],[32,208]]","true",""
"visual-search-circle","65","2.2.0","319501","78570","visual_search_trial","588","","f","","","","","","","","","","null","blue_triangle","2","[""images/Red_Triangle.png"",""images/Blue_Triangle.png"",""images/Blue_Triangle.png"",""images/Blue_Triangle.png"",""images/Blue_Triangle.png"",""images/Blue_Triangle.png""]","true","[[32,208],[150,247],[243,163],[217,41],[99,2],[6,86]]","true",""
"visual-search-circle","66","2.2.0","321549","78570","visual_search_trial","536","","f","","","","","","","","","","null","red_circle","2","[""images/Red_Triangle.png"",""images/Red_Circle.png"",""images/Red_Circle.png"",""images/Red_Circle.png"",""images/Red_Circle.png"",""images/Red_Circle.png"",""images/Red_Circle.png"",""images/Red_Circle.png"",""images/Red_Circle.png""]","true","[[42,30],[1,105],[17,189],[84,243],[169,241],[234,185],[247,101],[203,27],[122,0]]","true",""
"visual-search-circle","67","2.2.0","323641","78570","visual_search_trial","576","","j","","","","","","","","","","null","red_blue_mix","2","[""images/Blue_Circle.png"",""images/Blue_Triangle.png"",""images/Blue_Triangle.png"",""images/Blue_Triangle.png"",""images/Blue_Circle.png"",""images/Red_Circle.png""]","true","[[173,240],[249,140],[200,25],[76,9],[0,109],[49,224]]","false",""
"visual-search-circle","68","2.2.0","325658","78570","visual_search_trial","513","","j","","","","","","","","","","null","red_circle","2","[""images/Red_Circle.png"",""images/Red_Circle.png"",""images/Red_Circle.png"",""images/Red_Circle.png"",""images/Red_Circle.png"",""images/Red_Circle.png"",""images/Red_Circle.png"",""images/Red_Circle.png"",""images/Red_Circle.png""]","true","[[78,9],[14,66],[2,150],[48,223],[129,249],[208,217],[248,142],[231,58],[163,6]]","false",""
"visual-search-circle","69","2.2.0","328078","78570","visual_search_trial","906","","j","","","","","","","","","","null","red_blue_mix","2","[""images/Blue_Triangle.png"",""images/Blue_Triangle.png"",""images/Red_Circle.png""]","true","[[76,240],[249,109],[49,25]]","false",""
"visual-search-circle","70","2.2.0","330166","78570","visual_search_trial","571","","f","","","","","","","","","","null","red_blue_mix","3","[""images/Red_Triangle.png"",""images/Red_Circle.png"",""images/Red_Circle.png""]","true","[[0,114],[177,238],[196,22]]","true",""
"visual-search-circle","71","2.2.0","332194","78570","visual_search_trial","522","","f","","","","","","","","","","null","red_circle","3","[""images/Red_Triangle.png"",""images/Red_Circle.png"",""images/Red_Circle.png""]","true","[[36,36],[92,245],[245,92]]","true",""
"visual-search-circle","72","2.2.0","334127","78570","visual_search_trial","422","","j","","","","","","","","","","null","blue_triangle","3","[""images/Blue_Triangle.png"",""images/Blue_Triangle.png"",""images/Blue_Triangle.png""]","true","[[1,144],[203,222],[169,8]]","false",""
"visual-search-circle","73","2.2.0","336235","78570","visual_search_trial","592","","j","","","","","","","","","","null","red_blue_mix","3","[""images/Red_Circle.png"",""images/Blue_Circle.png"",""images/Blue_Circle.png"",""images/Blue_Triangle.png"",""images/Blue_Triangle.png"",""images/Red_Circle.png"",""images/Blue_Triangle.png"",""images/Blue_Circle.png"",""images/Blue_Triangle.png""]","true","[[62,233],[146,248],[220,205],[250,125],[220,44],[146,1],[62,16],[7,82],[7,167]]","false",""
"visual-search-circle","74","2.2.0","338494","78570","visual_search_trial","742","","f","","","","","","","","","","null","blue_triangle","3","[""images/Red_Triangle.png"",""images/Blue_Triangle.png"",""images/Blue_Triangle.png"",""images/Blue_Triangle.png"",""images/Blue_Triangle.png"",""images/Blue_Triangle.png""]","true","[[153,246],[244,161],[216,39],[96,3],[5,88],[33,210]]","true",""
"visual-search-circle","75","2.2.0","340557","78570","visual_search_trial","548","","f","","","","","","","","","","null","red_blue_mix","3","[""images/Red_Triangle.png"",""images/Red_Circle.png"",""images/Blue_Circle.png"",""images/Red_Circle.png"",""images/Blue_Triangle.png"",""images/Blue_Triangle.png"",""images/Blue_Triangle.png"",""images/Blue_Triangle.png"",""images/Blue_Triangle.png""]","true","[[78,240],[163,243],[231,191],[248,107],[208,32],[129,0],[48,26],[2,99],[14,183]]","true",""
"visual-search-circle","76","2.2.0","342544","78570","visual_search_trial","478","","f","","","","","","","","","","null","red_circle","3","[""images/Red_Triangle.png"",""images/Red_Circle.png"",""images/Red_Circle.png"",""images/Red_Circle.png"",""images/Red_Circle.png"",""images/Red_Circle.png"",""images/Red_Circle.png"",""images/Red_Circle.png"",""images/Red_Circle.png""]","true","[[16,187],[82,242],[167,242],[233,187],[248,103],[205,29],[125,0],[44,29],[1,103]]","true",""
"visual-search-circle","77","2.2.0","344523","78570","visual_search_trial","465","","f","","","","","","","","","","null","blue_triangle","3","[""images/Red_Triangle.png"",""images/Blue_Triangle.png"",""images/Blue_Triangle.png""]","true","[[27,46],[105,248],[241,80]]","true",""
"visual-search-circle","78","2.2.0","346555","78570","visual_search_trial","523","","j","","","","","","","","","","null","red_circle","3","[""images/Red_Circle.png"",""images/Red_Circle.png"",""images/Red_Circle.png"",""images/Red_Circle.png"",""images/Red_Circle.png"",""images/Red_Circle.png"",""images/Red_Circle.png"",""images/Red_Circle.png"",""images/Red_Circle.png""]","true","[[116,0],[38,35],[0,111],[21,194],[90,245],[175,239],[237,179],[246,94],[198,23]]","false",""
"visual-search-circle","79","2.2.0","348744","78570","visual_search_trial","686","","j","","","","","","","","","","null","red_blue_mix","3","[""images/Blue_Triangle.png"",""images/Red_Circle.png"",""images/Blue_Circle.png"",""images/Blue_Circle.png"",""images/Red_Circle.png"",""images/Blue_Circle.png""]","true","[[99,247],[217,208],[243,86],[150,2],[32,41],[6,163]]","false",""
"visual-search-circle","80","2.2.0","350707","78570","visual_search_trial","451","","j","","","","","","","","","","null","red_circle","3","[""images/Red_Circle.png"",""images/Red_Circle.png"",""images/Red_Circle.png""]","true","[[26,201],[240,171],[107,1]]","false",""
"visual-search-circle","81","2.2.0","352875","78570","visual_search_trial","651","","j","","","","","","","","","","null","blue_triangle","3","[""images/Blue_Triangle.png"",""images/Blue_Triangle.png"",""images/Blue_Triangle.png"",""images/Blue_Triangle.png"",""images/Blue_Triangle.png"",""images/Blue_Triangle.png"",""images/Blue_Triangle.png"",""images/Blue_Triangle.png"",""images/Blue_Triangle.png""]","true","[[249,138],[228,55],[159,4],[74,10],[12,70],[3,155],[51,226],[133,249],[211,214]]","false",""
"visual-search-circle","82","2.2.0","354793","78570","visual_search_trial","413","","j","","","","","","","","","","null","red_circle","3","[""images/Red_Circle.png"",""images/Red_Circle.png"",""images/Red_Circle.png"",""images/Red_Circle.png"",""images/Red_Circle.png"",""images/Red_Circle.png""]","true","[[23,51],[10,175],[111,249],[226,198],[239,74],[138,0]]","false",""
"visual-search-circle","83","2.2.0","356800","78570","visual_search_trial","496","","f","","","","","","","","","","null","red_blue_mix","3","[""images/Red_Triangle.png"",""images/Blue_Circle.png"",""images/Blue_Circle.png"",""images/Blue_Triangle.png"",""images/Blue_Circle.png"",""images/Red_Circle.png""]","true","[[41,217],[163,243],[247,150],[208,32],[86,6],[2,99]]","true",""
"visual-search-circle","84","2.2.0","358738","78570","visual_search_trial","422","","j","","","","","","","","","","null","blue_triangle","3","[""images/Blue_Triangle.png"",""images/Blue_Triangle.png"",""images/Blue_Triangle.png"",""images/Blue_Triangle.png"",""images/Blue_Triangle.png"",""images/Blue_Triangle.png""]","true","[[161,5],[39,33],[3,153],[88,244],[210,216],[246,96]]","false",""
"visual-search-circle","85","2.2.0","360691","78570","visual_search_trial","441","","j","","","","","","","","","","null","red_blue_mix","3","[""images/Red_Circle.png"",""images/Blue_Circle.png"",""images/Red_Circle.png""]","true","[[205,29],[1,103],[167,242]]","false",""
"visual-search-circle","86","2.2.0","362694","78570","visual_search_trial","490","","f","","","","","","","","","","null","blue_triangle","3","[""images/Red_Triangle.png"",""images/Blue_Triangle.png"",""images/Blue_Triangle.png"",""images/Blue_Triangle.png"",""images/Blue_Triangle.png"",""images/Blue_Triangle.png"",""images/Blue_Triangle.png"",""images/Blue_Triangle.png"",""images/Blue_Triangle.png""]","true","[[228,55],[159,4],[74,10],[12,70],[3,155],[51,226],[133,249],[211,214],[249,138]]","true",""
"visual-search-circle","87","2.2.0","364737","78570","visual_search_trial","536","","f","","","","","","","","","","null","red_circle","3","[""images/Red_Triangle.png"",""images/Red_Circle.png"",""images/Red_Circle.png"",""images/Red_Circle.png"",""images/Red_Circle.png"",""images/Red_Circle.png""]","true","[[217,208],[243,86],[150,2],[32,41],[6,163],[99,247]]","true",""
"html-keyboard-response","88","2.1.0","376196","78570","break","11457","<p>Great job so far! Please rest for a few seconds before continuing.</p>
                 <p>Press the <strong>C</strong> key on your keyboard to continue.</p>","c","","","","","","","","","","","","","","","","","C"
"visual-search-circle","89","2.2.0","378615","78570","visual_search_trial","909","","f","","","","","","","","","","null","red_blue_mix","4","[""images/Red_Triangle.png"",""images/Red_Circle.png"",""images/Red_Circle.png"",""images/Blue_Circle.png"",""images/Red_Circle.png"",""images/Blue_Triangle.png"",""images/Blue_Triangle.png"",""images/Blue_Triangle.png"",""images/Blue_Circle.png""]","true","[[88,5],[20,56],[0,140],[39,216],[118,249],[200,224],[246,153],[236,68],[173,9]]","true",""
"visual-search-circle","90","2.2.0","380592","78570","visual_search_trial","464","","j","","","","","","","","","","null","red_circle","4","[""images/Red_Circle.png"",""images/Red_Circle.png"",""images/Red_Circle.png""]","true","[[2,150],[208,217],[163,6]]","false",""
"visual-search-circle","91","2.2.0","382675","78570","visual_search_trial","566","","f","","","","","","","","","","null","red_blue_mix","4","[""images/Red_Triangle.png"",""images/Blue_Triangle.png"",""images/Red_Circle.png"",""images/Red_Circle.png"",""images/Blue_Circle.png"",""images/Red_Circle.png""]","true","[[30,207],[148,247],[243,165],[219,42],[101,2],[6,84]]","true",""
"visual-search-circle","92","2.2.0","384652","78570","visual_search_trial","462","","j","","","","","","","","","","null","blue_triangle","4","[""images/Blue_Triangle.png"",""images/Blue_Triangle.png"",""images/Blue_Triangle.png""]","true","[[248,144],[80,8],[46,222]]","false",""
"visual-search-circle","93","2.2.0","386590","78570","visual_search_trial","433","","j","","","","","","","","","","null","red_circle","4","[""images/Red_Circle.png"",""images/Red_Circle.png"",""images/Red_Circle.png"",""images/Red_Circle.png"",""images/Red_Circle.png"",""images/Red_Circle.png""]","true","[[122,249],[232,189],[234,64],[127,0],[17,60],[15,185]]","false",""
"visual-search-circle","94","2.2.0","388759","78570","visual_search_trial","654","","f","","","","","","","","","","null","blue_triangle","4","[""images/Red_Triangle.png"",""images/Blue_Triangle.png"",""images/Blue_Triangle.png""]","true","[[129,249],[231,58],[14,66]]","true",""
"visual-search-circle","95","2.2.0","390857","78570","visual_search_trial","590","","j","","","","","","","","","","null","red_blue_mix","4","[""images/Red_Circle.png"",""images/Blue_Triangle.png"",""images/Blue_Triangle.png"",""images/Blue_Triangle.png"",""images/Blue_Triangle.png"",""images/Blue_Circle.png"",""images/Blue_Triangle.png"",""images/Red_Circle.png"",""images/Blue_Triangle.png""]","true","[[0,109],[20,193],[88,244],[173,240],[236,181],[246,96],[200,25],[118,0],[39,33]]","false",""
"visual-search-circle","96","2.2.0","392904","78570","visual_search_trial","537","","f","","","","","","","","","","null","blue_triangle","4","[""images/Red_Triangle.png"",""images/Blue_Triangle.png"",""images/Blue_Triangle.png"",""images/Blue_Triangle.png"",""images/Blue_Triangle.png"",""images/Blue_Triangle.png"",""images/Blue_Triangle.png"",""images/Blue_Triangle.png"",""images/Blue_Triangle.png""]","true","[[99,247],[183,235],[240,171],[243,86],[191,18],[107,1],[32,41],[0,120],[26,201]]","true",""
"visual-search-circle","97","2.2.0","394929","78570","visual_search_trial","515","","f","","","","","","","","","","null","red_circle","4","[""images/Red_Triangle.png"",""images/Red_Circle.png"",""images/Red_Circle.png"",""images/Red_Circle.png"",""images/Red_Circle.png"",""images/Red_Circle.png""]","true","[[1,107],[48,223],[171,240],[248,142],[201,26],[78,9]]","true",""
"visual-search-circle","98","2.2.0","396906","78570","visual_search_trial","472","","j","","","","","","","","","","null","blue_triangle","4","[""images/Blue_Triangle.png"",""images/Blue_Triangle.png"",""images/Blue_Triangle.png"",""images/Blue_Triangle.png"",""images/Blue_Triangle.png"",""images/Blue_Triangle.png""]","true","[[246,155],[211,35],[90,4],[3,94],[38,214],[159,245]]","false",""
"visual-search-circle","99","2.2.0","398907","78570","visual_search_trial","484","","f","","","","","","","","","","null","red_circle","4","[""images/Red_Triangle.png"",""images/Red_Circle.png"",""images/Red_Circle.png"",""images/Red_Circle.png"",""images/Red_Circle.png"",""images/Red_Circle.png"",""images/Red_Circle.png"",""images/Red_Circle.png"",""images/Red_Circle.png""]","true","[[233,62],[167,7],[82,7],[16,62],[1,146],[44,220],[125,250],[205,220],[248,146]]","true",""
"visual-search-circle","100","2.2.0","401091","78570","visual_search_trial","674","","f","","","","","","","","","","null","red_blue_mix","4","[""images/Red_Triangle.png"",""images/Red_Circle.png"",""images/Blue_Triangle.png""]","true","[[235,66],[18,58],[120,249]]","true",""
"visual-search-circle","101","2.2.0","403068","78570","visual_search_trial","461","","j","","","","","","","","","","null","blue_triangle","4","[""images/Blue_Triangle.png"",""images/Blue_Triangle.png"",""images/Blue_Triangle.png"",""images/Blue_Triangle.png"",""images/Blue_Triangle.png"",""images/Blue_Triangle.png"",""images/Blue_Triangle.png"",""images/Blue_Triangle.png"",""images/Blue_Triangle.png""]","true","[[220,205],[250,125],[220,44],[146,1],[62,16],[7,82],[7,167],[62,233],[146,248]]","false",""
"visual-search-circle","102","2.2.0","405137","78570","visual_search_trial","553","","j","","","","","","","","","","null","red_blue_mix","4","[""images/Blue_Circle.png"",""images/Blue_Circle.png"",""images/Blue_Triangle.png"",""images/Blue_Circle.png"",""images/Red_Circle.png"",""images/Blue_Circle.png""]","true","[[229,56],[118,0],[13,68],[20,193],[131,249],[236,181]]","false",""
"visual-search-circle","103","2.2.0","407100","78570","visual_search_trial","451","","f","","","","","","","","","","null","red_circle","4","[""images/Red_Triangle.png"",""images/Red_Circle.png"",""images/Red_Circle.png""]","true","[[18,191],[235,183],[120,0]]","true",""
"visual-search-circle","104","2.2.0","409107","78570","visual_search_trial","495","","f","","","","","","","","","","null","blue_triangle","4","[""images/Red_Triangle.png"",""images/Blue_Triangle.png"",""images/Blue_Triangle.png"",""images/Blue_Triangle.png"",""images/Blue_Triangle.png"",""images/Blue_Triangle.png""]","true","[[148,247],[243,165],[219,42],[101,2],[6,84],[30,207]]","true",""
"visual-search-circle","105","2.2.0","411065","78570","visual_search_trial","452","","j","","","","","","","","","","null","red_circle","4","[""images/Red_Circle.png"",""images/Red_Circle.png"",""images/Red_Circle.png"",""images/Red_Circle.png"",""images/Red_Circle.png"",""images/Red_Circle.png"",""images/Red_Circle.png"",""images/Red_Circle.png"",""images/Red_Circle.png""]","true","[[165,6],[80,8],[15,64],[2,148],[46,222],[127,249],[207,219],[248,144],[232,60]]","false",""
"visual-search-circle","106","2.2.0","413108","78570","visual_search_trial","540","","j","","","","","","","","","","null","red_blue_mix","4","[""images/Red_Circle.png"",""images/Blue_Circle.png"",""images/Blue_Circle.png""]","true","[[72,238],[249,114],[53,22]]","false",""
"visual-search-circle","107","2.2.0","415055","78570","visual_search_trial","443","","j","","","","","","","","","","null","blue_triangle","5","[""images/Blue_Triangle.png"",""images/Blue_Triangle.png"",""images/Blue_Triangle.png""]","true","[[27,46],[105,248],[241,80]]","false",""
"visual-search-circle","108","2.2.0","417108","78570","visual_search_trial","537","","j","","","","","","","","","","null","red_circle","5","[""images/Red_Circle.png"",""images/Red_Circle.png"",""images/Red_Circle.png"",""images/Red_Circle.png"",""images/Red_Circle.png"",""images/Red_Circle.png"",""images/Red_Circle.png"",""images/Red_Circle.png"",""images/Red_Circle.png""]","true","[[0,140],[39,216],[118,249],[200,224],[246,153],[236,68],[173,9],[88,5],[20,56]]","false",""
"visual-search-circle","109","2.2.0","419382","78570","visual_search_trial","769","","f","","","","","","","","","","null","blue_triangle","5","[""images/Red_Triangle.png"",""images/Blue_Triangle.png"",""images/Blue_Triangle.png""]","true","[[29,44],[103,248],[242,82]]","true",""
"visual-search-circle","110","2.2.0","421430","78570","visual_search_trial","532","","f","","","","","","","","","","null","red_blue_mix","5","[""images/Red_Triangle.png"",""images/Red_Circle.png"",""images/Red_Circle.png""]","true","[[5,88],[153,246],[216,39]]","true",""
"visual-search-circle","111","2.2.0","423362","78570","visual_search_trial","419","","j","","","","","","","","","","null","blue_triangle","5","[""images/Blue_Triangle.png"",""images/Blue_Triangle.png"",""images/Blue_Triangle.png"",""images/Blue_Triangle.png"",""images/Blue_Triangle.png"",""images/Blue_Triangle.png""]","true","[[220,205],[242,82],[146,1],[29,44],[7,167],[103,248]]","false",""
"visual-search-circle","112","2.2.0","425400","78570","visual_search_trial","524","","f","","","","","","","","","","null","red_circle","5","[""images/Red_Triangle.png"",""images/Red_Circle.png"",""images/Red_Circle.png""]","true","[[205,29],[1,103],[167,242]]","true",""
"visual-search-circle","113","2.2.0","427519","78570","visual_search_trial","608","","j","","","","","","","","","","null","red_blue_mix","5","[""images/Blue_Circle.png"",""images/Blue_Triangle.png"",""images/Blue_Circle.png"",""images/Red_Circle.png"",""images/Blue_Circle.png"",""images/Red_Circle.png""]","true","[[181,13],[56,20],[0,131],[68,236],[193,229],[249,118]]","false",""
"visual-search-circle","114","2.2.0","429536","78570","visual_search_trial","506","","j","","","","","","","","","","null","red_circle","5","[""images/Red_Circle.png"",""images/Red_Circle.png"",""images/Red_Circle.png""]","true","[[27,203],[241,169],[105,1]]","false",""
"visual-search-circle","115","2.2.0","431559","78570","visual_search_trial","506","","f","","","","","","","","","","null","red_blue_mix","5","[""images/Red_Triangle.png"",""images/Red_Circle.png"",""images/Red_Circle.png"",""images/Red_Circle.png"",""images/Red_Circle.png"",""images/Blue_Triangle.png""]","true","[[129,249],[235,183],[231,58],[120,0],[14,66],[18,191]]","true",""
"visual-search-circle","116","2.2.0","433563","78570","visual_search_trial","488","","f","","","","","","","","","","null","red_circle","5","[""images/Red_Triangle.png"",""images/Red_Circle.png"",""images/Red_Circle.png"",""images/Red_Circle.png"",""images/Red_Circle.png"",""images/Red_Circle.png""]","true","[[3,96],[39,216],[161,244],[246,153],[210,33],[88,5]]","true",""
"visual-search-circle","117","2.2.0","435464","78570","visual_search_trial","395","","j","","","","","","","","","","null","blue_triangle","5","[""images/Blue_Triangle.png"",""images/Blue_Triangle.png"",""images/Blue_Triangle.png"",""images/Blue_Triangle.png"",""images/Blue_Triangle.png"",""images/Blue_Triangle.png"",""images/Blue_Triangle.png"",""images/Blue_Triangle.png"",""images/Blue_Triangle.png""]","true","[[16,62],[1,146],[44,220],[125,250],[205,220],[248,146],[233,62],[167,7],[82,7]]","false",""
"visual-search-circle","118","2.2.0","437493","78570","visual_search_trial","519","","f","","","","","","","","","","null","red_blue_mix","5","[""images/Red_Triangle.png"",""images/Red_Circle.png"",""images/Red_Circle.png"",""images/Blue_Circle.png"",""images/Blue_Circle.png"",""images/Blue_Triangle.png"",""images/Blue_Triangle.png"",""images/Blue_Triangle.png"",""images/Blue_Circle.png""]","true","[[125,250],[205,220],[248,146],[233,62],[167,7],[82,7],[16,62],[1,146],[44,220]]","true",""
"visual-search-circle","119","2.2.0","439475","78570","visual_search_trial","469","","f","","","","","","","","","","null","blue_triangle","5","[""images/Red_Triangle.png"",""images/Blue_Triangle.png"",""images/Blue_Triangle.png"",""images/Blue_Triangle.png"",""images/Blue_Triangle.png"",""images/Blue_Triangle.png""]","true","[[245,92],[157,4],[36,36],[4,157],[92,245],[213,213]]","true",""
"visual-search-circle","120","2.2.0","441513","78570","visual_search_trial","520","","f","","","","","","","","","","null","red_circle","5","[""images/Red_Triangle.png"",""images/Red_Circle.png"",""images/Red_Circle.png"",""images/Red_Circle.png"",""images/Red_Circle.png"",""images/Red_Circle.png"",""images/Red_Circle.png"",""images/Red_Circle.png"",""images/Red_Circle.png""]","true","[[16,62],[1,146],[44,220],[125,250],[205,220],[248,146],[233,62],[167,7],[82,7]]","true",""
"visual-search-circle","121","2.2.0","443898","78570","visual_search_trial","872","","j","","","","","","","","","","null","red_blue_mix","5","[""images/Blue_Circle.png"",""images/Blue_Circle.png"",""images/Red_Circle.png"",""images/Red_Circle.png"",""images/Blue_Circle.png"",""images/Red_Circle.png"",""images/Blue_Triangle.png"",""images/Blue_Triangle.png"",""images/Blue_Triangle.png""]","true","[[27,203],[101,247],[185,234],[241,169],[243,84],[189,17],[105,1],[30,42],[0,122]]","false",""
"visual-search-circle","122","2.2.0","445945","78570","visual_search_trial","532","","j","","","","","","","","","","null","red_circle","5","[""images/Red_Circle.png"",""images/Red_Circle.png"",""images/Red_Circle.png"",""images/Red_Circle.png"",""images/Red_Circle.png"",""images/Red_Circle.png""]","true","[[191,18],[66,14],[0,120],[58,231],[183,235],[249,129]]","false",""
"visual-search-circle","123","2.2.0","447933","78570","visual_search_trial","472","","j","","","","","","","","","","null","red_blue_mix","5","[""images/Red_Circle.png"",""images/Blue_Circle.png"",""images/Red_Circle.png""]","true","[[219,207],[148,2],[6,165]]","false",""
"visual-search-circle","124","2.2.0","450037","78570","visual_search_trial","590","","f","","","","","","","","","","null","blue_triangle","5","[""images/Red_Triangle.png"",""images/Blue_Triangle.png"",""images/Blue_Triangle.png"",""images/Blue_Triangle.png"",""images/Blue_Triangle.png"",""images/Blue_Triangle.png"",""images/Blue_Triangle.png"",""images/Blue_Triangle.png"",""images/Blue_Triangle.png""]","true","[[80,8],[15,64],[2,148],[46,222],[127,249],[207,219],[248,144],[232,60],[165,6]]","true",""
"html-keyboard-response","125","2.1.0","470434","78570","break","20396","<p>Great job so far! Please rest for a few seconds before continuing.</p>
                 <p>Press the <strong>V</strong> key on your keyboard to continue.</p>","v","","","","","","","","","","","","","","","","","V"
"visual-search-circle","126","2.2.0","472818","78570","visual_search_trial","870","","f","","","","","","","","","","null","blue_triangle","6","[""images/Red_Triangle.png"",""images/Blue_Triangle.png"",""images/Blue_Triangle.png"",""images/Blue_Triangle.png"",""images/Blue_Triangle.png"",""images/Blue_Triangle.png""]","true","[[157,4],[36,36],[4,157],[92,245],[213,213],[245,92]]","true",""
"visual-search-circle","127","2.2.0","474926","78570","visual_search_trial","604","","j","","","","","","","","","","null","red_blue_mix","6","[""images/Blue_Circle.png"",""images/Blue_Triangle.png"",""images/Blue_Circle.png"",""images/Blue_Circle.png"",""images/Blue_Triangle.png"",""images/Blue_Triangle.png""]","true","[[248,105],[169,8],[46,27],[1,144],[80,241],[203,222]]","false",""
"visual-search-circle","128","2.2.0","476844","78570","visual_search_trial","411","","j","","","","","","","","","","null","red_circle","6","[""images/Red_Circle.png"",""images/Red_Circle.png"",""images/Red_Circle.png"",""images/Red_Circle.png"",""images/Red_Circle.png"",""images/Red_Circle.png"",""images/Red_Circle.png"",""images/Red_Circle.png"",""images/Red_Circle.png""]","true","[[41,32],[1,107],[18,191],[86,243],[171,240],[235,183],[247,99],[201,26],[120,0]]","false",""
"visual-search-circle","129","2.2.0","478842","78570","visual_search_trial","483","","j","","","","","","","","","","null","blue_triangle","6","[""images/Blue_Triangle.png"",""images/Blue_Triangle.png"",""images/Blue_Triangle.png"",""images/Blue_Triangle.png"",""images/Blue_Triangle.png"",""images/Blue_Triangle.png""]","true","[[234,185],[232,60],[122,0],[15,64],[17,189],[127,249]]","false",""
"visual-search-circle","130","2.2.0","481015","78570","visual_search_trial","660","","j","","","","","","","","","","null","red_circle","6","[""images/Red_Circle.png"",""images/Red_Circle.png"",""images/Red_Circle.png"",""images/Red_Circle.png"",""images/Red_Circle.png"",""images/Red_Circle.png""]","true","[[8,80],[27,203],[144,248],[241,169],[222,46],[105,1]]","false",""
"visual-search-circle","131","2.2.0","482977","78570","visual_search_trial","456","","f","","","","","","","","","","null","red_blue_mix","6","[""images/Red_Triangle.png"",""images/Blue_Triangle.png"",""images/Red_Circle.png""]","true","[[157,245],[213,36],[4,92]]","true",""
"visual-search-circle","132","2.2.0","484879","78570","visual_search_trial","394","","j","","","","","","","","","","null","blue_triangle","6","[""images/Blue_Triangle.png"",""images/Blue_Triangle.png"",""images/Blue_Triangle.png"",""images/Blue_Triangle.png"",""images/Blue_Triangle.png"",""images/Blue_Triangle.png"",""images/Blue_Triangle.png"",""images/Blue_Triangle.png"",""images/Blue_Triangle.png""]","true","[[0,114],[22,196],[92,245],[177,238],[238,177],[245,92],[196,22],[114,0],[36,36]]","false",""
"visual-search-circle","133","2.2.0","486852","78570","visual_search_trial","466","","j","","","","","","","","","","null","red_blue_mix","6","[""images/Blue_Triangle.png"",""images/Blue_Triangle.png"",""images/Blue_Triangle.png"",""images/Blue_Circle.png"",""images/Blue_Circle.png"",""images/Red_Circle.png"",""images/Blue_Triangle.png"",""images/Blue_Triangle.png"",""images/Blue_Triangle.png""]","true","[[8,80],[6,165],[60,232],[144,248],[219,207],[249,127],[222,46],[148,2],[64,15]]","false",""
"visual-search-circle","134","2.2.0","488804","78570","visual_search_trial","446","","f","","","","","","","","","","null","red_circle","6","[""images/Red_Triangle.png"",""images/Red_Circle.png"",""images/Red_Circle.png"",""images/Red_Circle.png"",""images/Red_Circle.png"",""images/Red_Circle.png"",""images/Red_Circle.png"",""images/Red_Circle.png"",""images/Red_Circle.png""]","true","[[0,140],[39,216],[118,249],[200,224],[246,153],[236,68],[173,9],[88,5],[20,56]]","true",""
"visual-search-circle","135","2.2.0","490722","78570","visual_search_trial","404","","j","","","","","","","","","","null","red_blue_mix","6","[""images/Blue_Circle.png"",""images/Blue_Circle.png"",""images/Blue_Triangle.png""]","true","[[82,242],[248,103],[44,29]]","false",""
"visual-search-circle","136","2.2.0","492785","78570","visual_search_trial","545","","f","","","","","","","","","","null","blue_triangle","6","[""images/Red_Triangle.png"",""images/Blue_Triangle.png"",""images/Blue_Triangle.png"",""images/Blue_Triangle.png"",""images/Blue_Triangle.png"",""images/Blue_Triangle.png"",""images/Blue_Triangle.png"",""images/Blue_Triangle.png"",""images/Blue_Triangle.png""]","true","[[2,101],[15,185],[80,241],[165,243],[232,189],[248,105],[207,30],[127,0],[46,27]]","true",""
"visual-search-circle","137","2.2.0","494802","78570","visual_search_trial","500","","f","","","","","","","","","","null","red_blue_mix","6","[""images/Red_Triangle.png"",""images/Blue_Circle.png"",""images/Blue_Triangle.png"",""images/Blue_Circle.png"",""images/Blue_Triangle.png"",""images/Red_Circle.png""]","true","[[220,44],[103,1],[7,82],[29,205],[146,248],[242,167]]","true",""
"visual-search-circle","138","2.2.0","496790","78570","visual_search_trial","480","","f","","","","","","","","","","null","red_circle","6","[""images/Red_Triangle.png"",""images/Red_Circle.png"",""images/Red_Circle.png"",""images/Red_Circle.png"",""images/Red_Circle.png"",""images/Red_Circle.png""]","true","[[238,72],[135,0],[22,53],[11,177],[114,249],[227,196]]","true",""
"visual-search-circle","139","2.2.0","499034","78570","visual_search_trial","731","","f","","","","","","","","","","null","red_blue_mix","6","[""images/Red_Triangle.png"",""images/Blue_Circle.png"",""images/Blue_Circle.png"",""images/Blue_Triangle.png"",""images/Blue_Circle.png"",""images/Blue_Triangle.png"",""images/Blue_Triangle.png"",""images/Red_Circle.png"",""images/Blue_Triangle.png""]","true","[[35,38],[0,116],[23,198],[94,246],[179,237],[239,175],[245,90],[194,21],[111,0]]","true",""
"visual-search-circle","140","2.2.0","501084","78570","visual_search_trial","543","","j","","","","","","","","","","null","red_circle","6","[""images/Red_Circle.png"",""images/Red_Circle.png"",""images/Red_Circle.png""]","true","[[90,4],[38,214],[246,155]]","false",""
"visual-search-circle","141","2.2.0","503025","78570","visual_search_trial","435","","f","","","","","","","","","","null","blue_triangle","6","[""images/Blue_Triangle.png"",""images/Blue_Triangle.png"",""images/Blue_Triangle.png""]","false","[[3,153],[210,216],[161,5]]","false",""
"visual-search-circle","142","2.2.0","505188","78570","visual_search_trial","656","","f","","","","","","","","","","null","red_circle","6","[""images/Red_Triangle.png"",""images/Red_Circle.png"",""images/Red_Circle.png""]","true","[[220,205],[146,1],[7,167]]","true",""
"visual-search-circle","143","2.2.0","507632","78570","visual_search_trial","928","","f","","","","","","","","","","null","blue_triangle","6","[""images/Red_Triangle.png"",""images/Blue_Triangle.png"",""images/Blue_Triangle.png""]","true","[[1,103],[167,242],[205,29]]","true",""
"visual-search-circle","144","2.2.0","509781","78570","visual_search_trial","642","","j","","","","","","","","","","null","red_blue_mix","7","[""images/Blue_Circle.png"",""images/Red_Circle.png"",""images/Blue_Circle.png"",""images/Blue_Triangle.png"",""images/Blue_Triangle.png"",""images/Blue_Triangle.png"",""images/Blue_Triangle.png"",""images/Red_Circle.png"",""images/Blue_Circle.png""]","true","[[80,241],[165,243],[232,189],[248,105],[207,30],[127,0],[46,27],[2,101],[15,185]]","false",""
"visual-search-circle","145","2.2.0","511753","78570","visual_search_trial","465","","f","","","","","","","","","","null","blue_triangle","7","[""images/Red_Triangle.png"",""images/Blue_Triangle.png"",""images/Blue_Triangle.png"",""images/Blue_Triangle.png"",""images/Blue_Triangle.png"",""images/Blue_Triangle.png"",""images/Blue_Triangle.png"",""images/Blue_Triangle.png"",""images/Blue_Triangle.png""]","true","[[179,12],[94,3],[23,51],[0,133],[35,211],[111,249],[194,228],[245,159],[239,74]]","true",""
"visual-search-circle","146","2.2.0","513716","78570","visual_search_trial","451","","j","","","","","","","","","","null","red_circle","7","[""images/Red_Circle.png"",""images/Red_Circle.png"",""images/Red_Circle.png"",""images/Red_Circle.png"",""images/Red_Circle.png"",""images/Red_Circle.png""]","true","[[0,109],[49,224],[173,240],[249,140],[200,25],[76,9]]","false",""
"visual-search-circle","147","2.2.0","515704","78570","visual_search_trial","476","","f","","","","","","","","","","null","red_blue_mix","7","[""images/Red_Triangle.png"",""images/Red_Circle.png"",""images/Red_Circle.png""]","true","[[51,226],[249,138],[74,10]]","true",""
"visual-search-circle","148","2.2.0","517736","78570","visual_search_trial","518","","f","","","","","","","","","","null","red_circle","7","[""images/Red_Triangle.png"",""images/Red_Circle.png"",""images/Red_Circle.png"",""images/Red_Circle.png"",""images/Red_Circle.png"",""images/Red_Circle.png""]","true","[[0,109],[49,224],[173,240],[249,140],[200,25],[76,9]]","true",""
"visual-search-circle","149","2.2.0","519759","78570","visual_search_trial","508","","f","","","","","","","","","","null","blue_triangle","7","[""images/Red_Triangle.png"",""images/Blue_Triangle.png"",""images/Blue_Triangle.png"",""images/Blue_Triangle.png"",""images/Blue_Triangle.png"",""images/Blue_Triangle.png""]","true","[[41,32],[2,150],[86,243],[208,217],[247,99],[163,6]]","true",""
"visual-search-circle","150","2.2.0","521672","78570","visual_search_trial","398","","j","","","","","","","","","","null","red_circle","7","[""images/Red_Circle.png"",""images/Red_Circle.png"",""images/Red_Circle.png""]","true","[[99,2],[32,208],[243,163]]","false",""
"visual-search-circle","151","2.2.0","523720","78570","visual_search_trial","534","","j","","","","","","","","","","null","blue_triangle","7","[""images/Blue_Triangle.png"",""images/Blue_Triangle.png"",""images/Blue_Triangle.png""]","true","[[181,13],[0,131],[193,229]]","false",""
"visual-search-circle","152","2.2.0","525697","78570","visual_search_trial","463","","f","","","","","","","","","","null","red_circle","7","[""images/Red_Triangle.png"",""images/Red_Circle.png"",""images/Red_Circle.png""]","true","[[64,15],[60,232],[249,127]]","true",""
"visual-search-circle","153","2.2.0","527926","78570","visual_search_trial","724","","f","","","","","","","","","","null","red_blue_mix","7","[""images/Red_Triangle.png"",""images/Red_Circle.png"",""images/Blue_Triangle.png"",""images/Blue_Triangle.png"",""images/Blue_Circle.png"",""images/Blue_Circle.png"",""images/Red_Circle.png"",""images/Blue_Triangle.png"",""images/Red_Circle.png""]","true","[[84,6],[17,60],[1,144],[42,219],[122,249],[203,222],[247,148],[234,64],[169,8]]","true",""
"visual-search-circle","154","2.2.0","529914","78570","visual_search_trial","481","","j","","","","","","","","","","null","blue_triangle","7","[""images/Blue_Triangle.png"",""images/Blue_Triangle.png"",""images/Blue_Triangle.png"",""images/Blue_Triangle.png"",""images/Blue_Triangle.png"",""images/Blue_Triangle.png"",""images/Blue_Triangle.png"",""images/Blue_Triangle.png"",""images/Blue_Triangle.png""]","true","[[226,198],[249,116],[214,38],[138,0],[55,21],[4,90],[10,175],[70,237],[155,246]]","false",""
"visual-search-circle","155","2.2.0","532243","78570","visual_search_trial","813","","j","","","","","","","","","","null","red_blue_mix","7","[""images/Blue_Triangle.png"",""images/Red_Circle.png"",""images/Blue_Circle.png"",""images/Blue_Triangle.png"",""images/Red_Circle.png"",""images/Red_Circle.png""]","true","[[56,229],[181,236],[249,131],[193,20],[68,13],[0,118]]","false",""
"visual-search-circle","156","2.2.0","534240","78570","visual_search_trial","488","","j","","","","","","","","","","null","red_circle","7","[""images/Red_Circle.png"",""images/Red_Circle.png"",""images/Red_Circle.png"",""images/Red_Circle.png"",""images/Red_Circle.png"",""images/Red_Circle.png"",""images/Red_Circle.png"",""images/Red_Circle.png"",""images/Red_Circle.png""]","true","[[0,129],[32,208],[107,248],[191,231],[243,163],[240,78],[183,14],[99,2],[26,48]]","false",""
"visual-search-circle","157","2.2.0","536380","78570","visual_search_trial","628","","f","","","","","","","","","","null","blue_triangle","7","[""images/Red_Triangle.png"",""images/Blue_Triangle.png"",""images/Blue_Triangle.png""]","true","[[23,51],[111,249],[239,74]]","true",""
"visual-search-circle","158","2.2.0","538592","78570","visual_search_trial","704","","j","","","","","","","","","","null","red_blue_mix","7","[""images/Blue_Triangle.png"",""images/Red_Circle.png"",""images/Red_Circle.png""]","true","[[240,171],[107,1],[26,201]]","false",""
"visual-search-circle","159","2.2.0","540651","78570","visual_search_trial","556","","j","","","","","","","","","","null","blue_triangle","7","[""images/Blue_Triangle.png"",""images/Blue_Triangle.png"",""images/Blue_Triangle.png"",""images/Blue_Triangle.png"",""images/Blue_Triangle.png"",""images/Blue_Triangle.png""]","true","[[243,86],[150,2],[32,41],[6,163],[99,247],[217,208]]","false",""
"visual-search-circle","160","2.2.0","542703","78570","visual_search_trial","546","","f","","","","","","","","","","null","red_circle","7","[""images/Red_Triangle.png"",""images/Red_Circle.png"",""images/Red_Circle.png"",""images/Red_Circle.png"",""images/Red_Circle.png"",""images/Red_Circle.png"",""images/Red_Circle.png"",""images/Red_Circle.png"",""images/Red_Circle.png""]","true","[[247,99],[201,26],[120,0],[41,32],[1,107],[18,191],[86,243],[171,240],[235,183]]","true",""
"visual-search-circle","161","2.2.0","544797","78570","visual_search_trial","576","","f","","","","","","","","","","null","red_blue_mix","7","[""images/Red_Triangle.png"",""images/Red_Circle.png"",""images/Blue_Triangle.png"",""images/Blue_Circle.png"",""images/Red_Circle.png"",""images/Red_Circle.png""]","true","[[56,20],[0,131],[68,236],[193,229],[249,118],[181,13]]","true",""
"html-keyboard-response","162","2.1.0","553857","78570","break","9059","<p>Great job so far! Please rest for a few seconds before continuing.</p>
                 <p>Press the <strong>Z</strong> key on your keyboard to continue.</p>","z","","","","","","","","","","","","","","","","","Z"
"visual-search-circle","163","2.2.0","556110","78570","visual_search_trial","742","","f","","","","","","","","","","null","blue_triangle","8","[""images/Red_Triangle.png"",""images/Blue_Triangle.png"",""images/Blue_Triangle.png""]","true","[[62,16],[62,233],[250,125]]","true",""
"visual-search-circle","164","2.2.0","558206","78570","visual_search_trial","583","","j","","","","","","","","","","null","red_circle","8","[""images/Red_Circle.png"",""images/Red_Circle.png"",""images/Red_Circle.png"",""images/Red_Circle.png"",""images/Red_Circle.png"",""images/Red_Circle.png""]","true","[[46,27],[1,144],[80,241],[203,222],[248,105],[169,8]]","false",""
"visual-search-circle","165","2.2.0","560206","78570","visual_search_trial","484","","f","","","","","","","","","","null","red_blue_mix","8","[""images/Red_Triangle.png"",""images/Red_Circle.png"",""images/Red_Circle.png"",""images/Blue_Triangle.png"",""images/Blue_Circle.png"",""images/Blue_Circle.png""]","true","[[10,74],[23,198],[138,249],[239,175],[226,51],[111,0]]","true",""
"visual-search-circle","166","2.2.0","562335","78570","visual_search_trial","613","","f","","","","","","","","","","null","red_circle","8","[""images/Red_Triangle.png"",""images/Red_Circle.png"",""images/Red_Circle.png"",""images/Red_Circle.png"",""images/Red_Circle.png"",""images/Red_Circle.png"",""images/Red_Circle.png"",""images/Red_Circle.png"",""images/Red_Circle.png""]","true","[[200,224],[246,153],[236,68],[173,9],[88,5],[20,56],[0,140],[39,216],[118,249]]","true",""
"visual-search-circle","167","2.2.0","564443","78570","visual_search_trial","604","","j","","","","","","","","","","null","red_blue_mix","8","[""images/Blue_Triangle.png"",""images/Red_Circle.png"",""images/Red_Circle.png"",""images/Blue_Triangle.png"",""images/Blue_Triangle.png"",""images/Blue_Circle.png""]","true","[[66,235],[191,231],[249,120],[183,14],[58,18],[0,129]]","false",""
"visual-search-circle","168","2.2.0","566532","78570","visual_search_trial","574","","j","","","","","","","","","","null","blue_triangle","8","[""images/Blue_Triangle.png"",""images/Blue_Triangle.png"",""images/Blue_Triangle.png"",""images/Blue_Triangle.png"",""images/Blue_Triangle.png"",""images/Blue_Triangle.png""]","true","[[68,13],[0,118],[56,229],[181,236],[249,131],[193,20]]","false",""
"visual-search-circle","169","2.2.0","568568","78570","visual_search_trial","526","","j","","","","","","","","","","null","red_blue_mix","8","[""images/Red_Circle.png"",""images/Blue_Circle.png"",""images/Blue_Circle.png""]","true","[[35,38],[94,246],[245,90]]","false",""
"visual-search-circle","170","2.2.0","570591","78570","visual_search_trial","514","","f","","","","","","","","","","null","red_circle","8","[""images/Red_Triangle.png"",""images/Red_Circle.png"",""images/Red_Circle.png"",""images/Red_Circle.png"",""images/Red_Circle.png"",""images/Red_Circle.png""]","true","[[246,155],[211,35],[90,4],[3,94],[38,214],[159,245]]","true",""
"visual-search-circle","171","2.2.0","572795","78570","visual_search_trial","702","","f","","","","","","","","","","null","red_blue_mix","8","[""images/Red_Triangle.png"",""images/Blue_Triangle.png"",""images/Blue_Triangle.png""]","true","[[223,201],[142,1],[9,171]]","true",""
"visual-search-circle","172","2.2.0","574717","78570","visual_search_trial","418","","f","","","","","","","","","","null","blue_triangle","8","[""images/Red_Triangle.png"",""images/Blue_Triangle.png"",""images/Blue_Triangle.png"",""images/Blue_Triangle.png"",""images/Blue_Triangle.png"",""images/Blue_Triangle.png"",""images/Blue_Triangle.png"",""images/Blue_Triangle.png"",""images/Blue_Triangle.png""]","true","[[242,167],[242,82],[187,16],[103,1],[29,44],[0,124],[29,205],[103,248],[187,233]]","true",""
"visual-search-circle","173","2.2.0","576670","78570","visual_search_trial","440","","j","","","","","","","","","","null","red_blue_mix","8","[""images/Blue_Circle.png"",""images/Blue_Triangle.png"",""images/Blue_Triangle.png"",""images/Blue_Circle.png"",""images/Blue_Circle.png"",""images/Blue_Triangle.png"",""images/Blue_Circle.png"",""images/Blue_Circle.png"",""images/Blue_Triangle.png""]","true","[[9,171],[66,235],[150,247],[223,201],[249,120],[217,41],[142,1],[58,18],[6,86]]","false",""
"visual-search-circle","174","2.2.0","578673","78570","visual_search_trial","498","","j","","","","","","","","","","null","blue_triangle","8","[""images/Blue_Triangle.png"",""images/Blue_Triangle.png"",""images/Blue_Triangle.png"",""images/Blue_Triangle.png"",""images/Blue_Triangle.png"",""images/Blue_Triangle.png"",""images/Blue_Triangle.png"",""images/Blue_Triangle.png"",""images/Blue_Triangle.png""]","true","[[211,214],[249,138],[228,55],[159,4],[74,10],[12,70],[3,155],[51,226],[133,249]]","false",""
"visual-search-circle","175","2.2.0","580816","78570","visual_search_trial","636","","j","","","","","","","","","","null","red_circle","8","[""images/Red_Circle.png"",""images/Red_Circle.png"",""images/Red_Circle.png""]","true","[[33,210],[244,161],[96,3]]","false",""
"visual-search-circle","176","2.2.0","582919","78570","visual_search_trial","600","","j","","","","","","","","","","null","blue_triangle","8","[""images/Blue_Triangle.png"",""images/Blue_Triangle.png"",""images/Blue_Triangle.png""]","true","[[118,0],[20,193],[236,181]]","false",""
"visual-search-circle","177","2.2.0","585139","78570","visual_search_trial","706","","j","","","","","","","","","","null","red_circle","8","[""images/Red_Circle.png"",""images/Red_Circle.png"",""images/Red_Circle.png"",""images/Red_Circle.png"",""images/Red_Circle.png"",""images/Red_Circle.png"",""images/Red_Circle.png"",""images/Red_Circle.png"",""images/Red_Circle.png""]","true","[[233,62],[167,7],[82,7],[16,62],[1,146],[44,220],[125,250],[205,220],[248,146]]","false",""
"visual-search-circle","178","2.2.0","587221","78570","visual_search_trial","577","","f","","","","","","","","","","null","blue_triangle","8","[""images/Red_Triangle.png"",""images/Blue_Triangle.png"",""images/Blue_Triangle.png"",""images/Blue_Triangle.png"",""images/Blue_Triangle.png"",""images/Blue_Triangle.png""]","true","[[86,6],[2,99],[41,217],[163,243],[247,150],[208,32]]","true",""
"visual-search-circle","179","2.2.0","589254","78570","visual_search_trial","522","","f","","","","","","","","","","null","red_circle","8","[""images/Red_Triangle.png"",""images/Red_Circle.png"",""images/Red_Circle.png""]","true","[[10,175],[226,198],[138,0]]","true",""
"visual-search-circle","180","2.2.0","591574","78570","visual_search_trial","807","","f","","","","","","","","","","null","red_blue_mix","8","[""images/Red_Triangle.png"",""images/Red_Circle.png"",""images/Blue_Circle.png"",""images/Red_Circle.png"",""images/Blue_Circle.png"",""images/Blue_Circle.png"",""images/Red_Circle.png"",""images/Blue_Triangle.png"",""images/Red_Circle.png""]","true","[[201,223],[247,150],[235,66],[171,9],[86,6],[18,58],[1,142],[41,217],[120,249]]","true",""
"visual-search-circle","181","2.2.0","593582","78570","visual_search_trial","491","","j","","","","","","","","","","null","red_circle","9","[""images/Red_Circle.png"",""images/Red_Circle.png"",""images/Red_Circle.png"",""images/Red_Circle.png"",""images/Red_Circle.png"",""images/Red_Circle.png""]","true","[[101,247],[219,207],[243,84],[148,2],[30,42],[6,165]]","false",""
"visual-search-circle","182","2.2.0","595630","78570","visual_search_trial","541","","j","","","","","","","","","","null","blue_triangle","9","[""images/Blue_Triangle.png"",""images/Blue_Triangle.png"",""images/Blue_Triangle.png"",""images/Blue_Triangle.png"",""images/Blue_Triangle.png"",""images/Blue_Triangle.png""]","true","[[66,235],[191,231],[249,120],[183,14],[58,18],[0,129]]","false",""
"visual-search-circle","183","2.2.0","597737","78570","visual_search_trial","596","","f","","","","","","","","","","null","red_blue_mix","9","[""images/Red_Triangle.png"",""images/Red_Circle.png"",""images/Red_Circle.png"",""images/Blue_Triangle.png"",""images/Blue_Circle.png"",""images/Blue_Circle.png""]","true","[[246,155],[211,35],[90,4],[3,94],[38,214],[159,245]]","true",""
"visual-search-circle","184","2.2.0","599769","78570","visual_search_trial","524","","f","","","","","","","","","","null","red_circle","9","[""images/Red_Triangle.png"",""images/Red_Circle.png"",""images/Red_Circle.png"",""images/Red_Circle.png"",""images/Red_Circle.png"",""images/Red_Circle.png"",""images/Red_Circle.png"",""images/Red_Circle.png"",""images/Red_Circle.png""]","true","[[249,135],[227,53],[157,4],[72,11],[11,72],[4,157],[53,227],[135,249],[213,213]]","true",""
"visual-search-circle","185","2.2.0","601748","78570","visual_search_trial","471","","f","","","","","","","","","","null","blue_triangle","9","[""images/Red_Triangle.png"",""images/Blue_Triangle.png"",""images/Blue_Triangle.png""]","true","[[13,181],[229,193],[131,0]]","true",""
"visual-search-circle","186","2.2.0","603836","78570","visual_search_trial","572","","j","","","","","","","","","","null","red_circle","9","[""images/Red_Circle.png"",""images/Red_Circle.png"",""images/Red_Circle.png"",""images/Red_Circle.png"",""images/Red_Circle.png"",""images/Red_Circle.png"",""images/Red_Circle.png"",""images/Red_Circle.png"",""images/Red_Circle.png""]","true","[[245,157],[238,72],[177,11],[92,4],[22,53],[0,135],[36,213],[114,249],[196,227]]","false",""
"visual-search-circle","187","2.2.0","605829","78570","visual_search_trial","482","","j","","","","","","","","","","null","red_blue_mix","9","[""images/Blue_Triangle.png"",""images/Blue_Triangle.png"",""images/Blue_Triangle.png"",""images/Blue_Circle.png"",""images/Blue_Triangle.png"",""images/Blue_Circle.png""]","true","[[208,32],[86,6],[2,99],[41,217],[163,243],[247,150]]","false",""
"visual-search-circle","188","2.2.0","607918","78570","visual_search_trial","573","","f","","","","","","","","","","null","blue_triangle","9","[""images/Red_Triangle.png"",""images/Blue_Triangle.png"",""images/Blue_Triangle.png"",""images/Blue_Triangle.png"",""images/Blue_Triangle.png"",""images/Blue_Triangle.png""]","true","[[247,101],[165,6],[42,30],[2,148],[84,243],[207,219]]","true",""
"visual-search-circle","189","2.2.0","609955","78570","visual_search_trial","526","","j","","","","","","","","","","null","red_blue_mix","9","[""images/Blue_Triangle.png"",""images/Blue_Triangle.png"",""images/Blue_Triangle.png"",""images/Blue_Triangle.png"",""images/Red_Circle.png"",""images/Blue_Triangle.png"",""images/Blue_Circle.png"",""images/Blue_Circle.png"",""images/Blue_Circle.png""]","true","[[44,29],[1,103],[16,187],[82,242],[167,242],[233,187],[248,103],[205,29],[125,0]]","false",""
"visual-search-circle","190","2.2.0","611988","78570","visual_search_trial","528","","j","","","","","","","","","","null","blue_triangle","9","[""images/Blue_Triangle.png"",""images/Blue_Triangle.png"",""images/Blue_Triangle.png"",""images/Blue_Triangle.png"",""images/Blue_Triangle.png"",""images/Blue_Triangle.png"",""images/Blue_Triangle.png"",""images/Blue_Triangle.png"",""images/Blue_Triangle.png""]","true","[[35,38],[0,116],[23,198],[94,246],[179,237],[239,175],[245,90],[194,21],[111,0]]","false",""
"visual-search-circle","191","2.2.0","614096","78570","visual_search_trial","598","","f","","","","","","","","","","null","red_blue_mix","9","[""images/Red_Triangle.png"",""images/Blue_Circle.png"",""images/Blue_Circle.png"",""images/Red_Circle.png"",""images/Blue_Circle.png"",""images/Red_Circle.png"",""images/Blue_Triangle.png"",""images/Blue_Triangle.png"",""images/Red_Circle.png""]","true","[[86,6],[18,58],[1,142],[41,217],[120,249],[201,223],[247,150],[235,66],[171,9]]","true",""
"visual-search-circle","192","2.2.0","616210","78570","visual_search_trial","601","","f","","","","","","","","","","null","red_circle","9","[""images/Red_Triangle.png"",""images/Red_Circle.png"",""images/Red_Circle.png"",""images/Red_Circle.png"",""images/Red_Circle.png"",""images/Red_Circle.png""]","true","[[92,245],[213,213],[245,92],[157,4],[36,36],[4,157]]","true",""
"visual-search-circle","193","2.2.0","618172","78570","visual_search_trial","449","","j","","","","","","","","","","null","blue_triangle","9","[""images/Blue_Triangle.png"",""images/Blue_Triangle.png"",""images/Blue_Triangle.png""]","true","[[131,0],[13,181],[229,193]]","false",""
"visual-search-circle","194","2.2.0","620180","78570","visual_search_trial","495","","j","","","","","","","","","","null","red_blue_mix","9","[""images/Blue_Circle.png"",""images/Blue_Circle.png"",""images/Blue_Triangle.png""]","true","[[76,9],[49,224],[249,140]]","false",""
"visual-search-circle","195","2.2.0","622565","78570","visual_search_trial","876","","f","","","","","","","","","","null","red_circle","9","[""images/Red_Triangle.png"",""images/Red_Circle.png"",""images/Red_Circle.png""]","true","[[42,219],[247,148],[84,6]]","true",""
"visual-search-circle","196","2.2.0","624719","78570","visual_search_trial","639","","f","","","","","","","","","","null","red_blue_mix","9","[""images/Red_Triangle.png"",""images/Red_Circle.png"",""images/Blue_Triangle.png""]","true","[[82,7],[44,220],[248,146]]","true",""
"visual-search-circle","197","2.2.0","626866","78570","visual_search_trial","636","","f","","","","","","","","","","null","blue_triangle","9","[""images/Red_Triangle.png"",""images/Blue_Triangle.png"",""images/Blue_Triangle.png"",""images/Blue_Triangle.png"",""images/Blue_Triangle.png"",""images/Blue_Triangle.png"",""images/Blue_Triangle.png"",""images/Blue_Triangle.png"",""images/Blue_Triangle.png""]","true","[[0,114],[22,196],[92,245],[177,238],[238,177],[245,92],[196,22],[114,0],[36,36]]","true",""
"visual-search-circle","198","2.2.0","628889","78570","visual_search_trial","518","","j","","","","","","","","","","null","red_circle","9","[""images/Red_Circle.png"",""images/Red_Circle.png"",""images/Red_Circle.png""]","true","[[210,216],[161,5],[3,153]]","false",""
"html-keyboard-response","199","2.1.0","634603","78570","break","5714","<p>Great job so far! Please rest for a few seconds before continuing.</p>
                 <p>Press the <strong>M</strong> key on your keyboard to continue.</p>","m","","","","","","","","","","","","","","","","","M"
"visual-search-circle","200","2.2.0","636755","78570","visual_search_trial","650","","j","","","","","","","","","","null","blue_triangle","10","[""images/Blue_Triangle.png"",""images/Blue_Triangle.png"",""images/Blue_Triangle.png""]","true","[[191,231],[183,14],[0,129]]","false",""
"visual-search-circle","201","2.2.0","638883","78570","visual_search_trial","620","","f","","","","","","","","","","null","red_circle","10","[""images/Red_Triangle.png"",""images/Red_Circle.png"",""images/Red_Circle.png""]","true","[[193,20],[0,118],[181,236]]","true",""
"visual-search-circle","202","2.2.0","641132","78570","visual_search_trial","744","","f","","","","","","","","","","null","blue_triangle","10","[""images/Red_Triangle.png"",""images/Blue_Triangle.png"",""images/Blue_Triangle.png"",""images/Blue_Triangle.png"",""images/Blue_Triangle.png"",""images/Blue_Triangle.png""]","true","[[5,161],[96,246],[216,210],[244,88],[153,3],[33,39]]","true",""
"visual-search-circle","203","2.2.0","643245","78570","visual_search_trial","603","","f","","","","","","","","","","null","red_blue_mix","10","[""images/Red_Triangle.png"",""images/Blue_Triangle.png"",""images/Blue_Circle.png"",""images/Blue_Triangle.png"",""images/Blue_Triangle.png"",""images/Blue_Triangle.png"",""images/Blue_Circle.png"",""images/Blue_Triangle.png"",""images/Blue_Circle.png""]","true","[[12,179],[74,239],[159,245],[228,194],[249,111],[211,35],[133,0],[51,23],[3,94]]","true",""
"visual-search-circle","204","2.2.0","645257","78570","visual_search_trial","509","","f","","","","","","","","","","null","red_circle","10","[""images/Red_Triangle.png"",""images/Red_Circle.png"",""images/Red_Circle.png"",""images/Red_Circle.png"",""images/Red_Circle.png"",""images/Red_Circle.png""]","true","[[0,122],[60,232],[185,234],[249,127],[189,17],[64,15]]","true",""
"visual-search-circle","205","2.2.0","647236","78570","visual_search_trial","476","","f","","","","","","","","","","null","red_blue_mix","10","[""images/Red_Triangle.png"",""images/Blue_Triangle.png"",""images/Blue_Triangle.png""]","true","[[140,0],[9,173],[224,200]]","true",""
"visual-search-circle","206","2.2.0","649259","78570","visual_search_trial","520","","j","","","","","","","","","","null","blue_triangle","10","[""images/Blue_Triangle.png"",""images/Blue_Triangle.png"",""images/Blue_Triangle.png"",""images/Blue_Triangle.png"",""images/Blue_Triangle.png"",""images/Blue_Triangle.png"",""images/Blue_Triangle.png"",""images/Blue_Triangle.png"",""images/Blue_Triangle.png""]","true","[[245,90],[194,21],[111,0],[35,38],[0,116],[23,198],[94,246],[179,237],[239,175]]","false",""
"visual-search-circle","207","2.2.0","651236","78570","visual_search_trial","460","","j","","","","","","","","","","null","red_circle","10","[""images/Red_Circle.png"",""images/Red_Circle.png"",""images/Red_Circle.png"",""images/Red_Circle.png"",""images/Red_Circle.png"",""images/Red_Circle.png""]","true","[[217,208],[243,86],[150,2],[32,41],[6,163],[99,247]]","false",""
"visual-search-circle","208","2.2.0","653224","78570","visual_search_trial","484","","f","","","","","","","","","","null","red_blue_mix","10","[""images/Red_Triangle.png"",""images/Blue_Triangle.png"",""images/Blue_Circle.png"",""images/Red_Circle.png"",""images/Blue_Circle.png"",""images/Red_Circle.png""]","true","[[249,135],[196,22],[72,11],[0,114],[53,227],[177,238]]","true",""
"visual-search-circle","209","2.2.0","655236","78570","visual_search_trial","502","","f","","","","","","","","","","null","blue_triangle","10","[""images/Red_Triangle.png"",""images/Blue_Triangle.png"",""images/Blue_Triangle.png""]","true","[[241,80],[27,46],[105,248]]","true",""
"visual-search-circle","210","2.2.0","657415","78570","visual_search_trial","663","","f","","","","","","","","","","null","red_circle","10","[""images/Red_Triangle.png"",""images/Red_Circle.png"",""images/Red_Circle.png"",""images/Red_Circle.png"",""images/Red_Circle.png"",""images/Red_Circle.png"",""images/Red_Circle.png"",""images/Red_Circle.png"",""images/Red_Circle.png""]","true","[[39,216],[118,249],[200,224],[246,153],[236,68],[173,9],[88,5],[20,56],[0,140]]","true",""
"visual-search-circle","211","2.2.0","659387","78570","visual_search_trial","455","","f","","","","","","","","","","null","blue_triangle","10","[""images/Red_Triangle.png"",""images/Blue_Triangle.png"",""images/Blue_Triangle.png"",""images/Blue_Triangle.png"",""images/Blue_Triangle.png"",""images/Blue_Triangle.png"",""images/Blue_Triangle.png"",""images/Blue_Triangle.png"",""images/Blue_Triangle.png""]","true","[[0,135],[36,213],[114,249],[196,227],[245,157],[238,72],[177,11],[92,4],[22,53]]","true",""
"visual-search-circle","212","2.2.0","661551","78570","visual_search_trial","656","","j","","","","","","","","","","null","red_blue_mix","10","[""images/Blue_Circle.png"",""images/Red_Circle.png"",""images/Blue_Circle.png"",""images/Blue_Triangle.png"",""images/Red_Circle.png"",""images/Red_Circle.png""]","true","[[235,183],[231,58],[120,0],[14,66],[18,191],[129,249]]","false",""
"visual-search-circle","213","2.2.0","663544","78570","visual_search_trial","485","","j","","","","","","","","","","null","red_circle","10","[""images/Red_Circle.png"",""images/Red_Circle.png"",""images/Red_Circle.png"",""images/Red_Circle.png"",""images/Red_Circle.png"",""images/Red_Circle.png"",""images/Red_Circle.png"",""images/Red_Circle.png"",""images/Red_Circle.png""]","true","[[53,227],[135,249],[213,213],[249,135],[227,53],[157,4],[72,11],[11,72],[4,157]]","false",""
"visual-search-circle","214","2.2.0","665536","78570","visual_search_trial","479","","j","","","","","","","","","","null","blue_triangle","10","[""images/Blue_Triangle.png"",""images/Blue_Triangle.png"",""images/Blue_Triangle.png"",""images/Blue_Triangle.png"",""images/Blue_Triangle.png"",""images/Blue_Triangle.png""]","true","[[14,66],[18,191],[129,249],[235,183],[231,58],[120,0]]","false",""
"visual-search-circle","215","2.2.0","667644","78570","visual_search_trial","598","","j","","","","","","","","","","null","red_blue_mix","10","[""images/Red_Circle.png"",""images/Blue_Triangle.png"",""images/Blue_Circle.png"",""images/Red_Circle.png"",""images/Red_Circle.png"",""images/Red_Circle.png"",""images/Red_Circle.png"",""images/Blue_Triangle.png"",""images/Red_Circle.png""]","true","[[153,3],[68,13],[9,76],[5,161],[56,229],[140,249],[216,210],[249,131],[224,49]]","false",""
"visual-search-circle","216","2.2.0","669632","78570","visual_search_trial","478","","j","","","","","","","","","","null","red_circle","10","[""images/Red_Circle.png"",""images/Red_Circle.png"",""images/Red_Circle.png""]","true","[[74,239],[249,111],[51,23]]","false",""
"visual-search-circle","217","2.2.0","671635","78570","visual_search_trial","492","","j","","","","","","","","","","null","red_blue_mix","10","[""images/Red_Circle.png"",""images/Red_Circle.png"",""images/Red_Circle.png""]","true","[[198,23],[0,111],[175,239]]","false",""
"visual-search-circle","218","2.2.0","673612","78570","visual_search_trial","475","","f","","","","","","","","","","null","blue_triangle","11","[""images/Red_Triangle.png"",""images/Blue_Triangle.png"",""images/Blue_Triangle.png"",""images/Blue_Triangle.png"",""images/Blue_Triangle.png"",""images/Blue_Triangle.png"",""images/Blue_Triangle.png"",""images/Blue_Triangle.png"",""images/Blue_Triangle.png""]","true","[[153,3],[68,13],[9,76],[5,161],[56,229],[140,249],[216,210],[249,131],[224,49]]","true",""
"visual-search-circle","219","2.2.0","675655","78570","visual_search_trial","540","","j","","","","","","","","","","null","red_blue_mix","11","[""images/Blue_Circle.png"",""images/Blue_Circle.png"",""images/Blue_Circle.png""]","true","[[10,74],[138,249],[226,51]]","false",""
"visual-search-circle","220","2.2.0","677583","78570","visual_search_trial","414","","j","","","","","","","","","","null","blue_triangle","11","[""images/Blue_Triangle.png"",""images/Blue_Triangle.png"",""images/Blue_Triangle.png""]","true","[[92,4],[36,213],[245,157]]","false",""
"visual-search-circle","221","2.2.0","679555","78570","visual_search_trial","455","","j","","","","","","","","","","null","red_circle","11","[""images/Red_Circle.png"",""images/Red_Circle.png"",""images/Red_Circle.png"",""images/Red_Circle.png"",""images/Red_Circle.png"",""images/Red_Circle.png"",""images/Red_Circle.png"",""images/Red_Circle.png"",""images/Red_Circle.png""]","true","[[157,245],[227,196],[249,114],[213,36],[135,0],[53,22],[4,92],[11,177],[72,238]]","false",""
"visual-search-circle","222","2.2.0","682011","78570","visual_search_trial","949","","f","","","","","","","","","","null","red_blue_mix","11","[""images/Red_Triangle.png"",""images/Red_Circle.png"",""images/Blue_Triangle.png"",""images/Blue_Circle.png"",""images/Red_Circle.png"",""images/Red_Circle.png"",""images/Red_Circle.png"",""images/Red_Circle.png"",""images/Blue_Triangle.png""]","true","[[120,249],[201,223],[247,150],[235,66],[171,9],[86,6],[18,58],[1,142],[41,217]]","true",""
"visual-search-circle","223","2.2.0","684103","78570","visual_search_trial","576","","f","","","","","","","","","","null","red_circle","11","[""images/Red_Triangle.png"",""images/Red_Circle.png"",""images/Red_Circle.png""]","true","[[5,88],[153,246],[216,39]]","true",""
"visual-search-circle","224","2.2.0","686246","78570","visual_search_trial","630","","f","","","","","","","","","","null","blue_triangle","11","[""images/Red_Triangle.png"",""images/Blue_Triangle.png"",""images/Blue_Triangle.png""]","true","[[46,27],[80,241],[248,105]]","true",""
"visual-search-circle","225","2.2.0","688279","78570","visual_search_trial","528","","f","","","","","","","","","","null","red_blue_mix","11","[""images/Red_Triangle.png"",""images/Blue_Triangle.png"",""images/Blue_Circle.png""]","true","[[16,62],[125,250],[233,62]]","true",""
"visual-search-circle","226","2.2.0","690358","78570","visual_search_trial","566","","j","","","","","","","","","","null","blue_triangle","11","[""images/Blue_Triangle.png"",""images/Blue_Triangle.png"",""images/Blue_Triangle.png"",""images/Blue_Triangle.png"",""images/Blue_Triangle.png"",""images/Blue_Triangle.png""]","true","[[1,142],[78,240],[201,223],[248,107],[171,9],[48,26]]","false",""
"visual-search-circle","227","2.2.0","692380","78570","visual_search_trial","515","","j","","","","","","","","","","null","red_circle","11","[""images/Red_Circle.png"",""images/Red_Circle.png"",""images/Red_Circle.png"",""images/Red_Circle.png"",""images/Red_Circle.png"",""images/Red_Circle.png""]","true","[[114,0],[11,72],[22,196],[135,249],[238,177],[227,53]]","false",""
"visual-search-circle","228","2.2.0","694438","78570","visual_search_trial","547","","f","","","","","","","","","","null","red_blue_mix","11","[""images/Red_Triangle.png"",""images/Blue_Triangle.png"",""images/Blue_Circle.png"",""images/Red_Circle.png"",""images/Red_Circle.png"",""images/Blue_Triangle.png""]","true","[[249,118],[181,13],[56,20],[0,131],[68,236],[193,229]]","true",""
"visual-search-circle","229","2.2.0","696381","78570","visual_search_trial","431","","f","","","","","","","","","","null","blue_triangle","11","[""images/Red_Triangle.png"",""images/Blue_Triangle.png"",""images/Blue_Triangle.png"",""images/Blue_Triangle.png"",""images/Blue_Triangle.png"",""images/Blue_Triangle.png""]","true","[[155,3],[35,38],[4,159],[94,246],[214,211],[245,90]]","true",""
"visual-search-circle","230","2.2.0","698594","78570","visual_search_trial","704","","f","","","","","","","","","","null","red_circle","11","[""images/Red_Triangle.png"",""images/Red_Circle.png"",""images/Red_Circle.png"",""images/Red_Circle.png"",""images/Red_Circle.png"",""images/Red_Circle.png""]","true","[[249,131],[193,20],[68,13],[0,118],[56,229],[181,236]]","true",""
"visual-search-circle","231","2.2.0","700683","78570","visual_search_trial","579","","j","","","","","","","","","","null","red_blue_mix","11","[""images/Blue_Circle.png"",""images/Red_Circle.png"",""images/Blue_Circle.png"",""images/Red_Circle.png"",""images/Blue_Circle.png"",""images/Blue_Triangle.png""]","true","[[217,208],[243,86],[150,2],[32,41],[6,163],[99,247]]","false",""
"visual-search-circle","232","2.2.0","702810","78570","visual_search_trial","624","","j","","","","","","","","","","null","red_circle","11","[""images/Red_Circle.png"",""images/Red_Circle.png"",""images/Red_Circle.png""]","true","[[249,131],[68,13],[56,229]]","false",""
"visual-search-circle","233","2.2.0","704888","78570","visual_search_trial","569","","j","","","","","","","","","","null","red_blue_mix","11","[""images/Blue_Triangle.png"",""images/Red_Circle.png"",""images/Blue_Circle.png"",""images/Blue_Triangle.png"",""images/Red_Circle.png"",""images/Red_Circle.png"",""images/Blue_Triangle.png"",""images/Blue_Circle.png"",""images/Blue_Triangle.png""]","true","[[249,109],[210,33],[131,0],[49,25],[3,96],[13,181],[76,240],[161,244],[229,193]]","false",""
"visual-search-circle","234","2.2.0","706921","78570","visual_search_trial","530","","j","","","","","","","","","","null","blue_triangle","11","[""images/Blue_Triangle.png"",""images/Blue_Triangle.png"",""images/Blue_Triangle.png"",""images/Blue_Triangle.png"",""images/Blue_Triangle.png"",""images/Blue_Triangle.png"",""images/Blue_Triangle.png"",""images/Blue_Triangle.png"",""images/Blue_Triangle.png""]","true","[[144,248],[219,207],[249,127],[222,46],[148,2],[64,15],[8,80],[6,165],[60,232]]","false",""
