"trial_type","trial_index","plugin_version","time_elapsed","sona_id","phase","rt","stimulus","response","consented","required_key","view_history","question_order","success","timeout","failed_images","failed_audio","failed_video","set_size","distractor_type","block","stimuli_list","correct","locations","target_present","break_key"
"pavlovia","0","null","925","78346","","","","","","","","","","","","","","","","","","","","",""
"html-button-response","1","2.1.0","8324","78346","informed_consent","7399","
    <div style=""max-width: 900px; margin: 0 auto; padding: 20px; text-align: left; line-height: 1.6;"">
      <h1 style=""text-align: center; color: #333; font-size: 24px; margin-bottom: 10px; font-weight: bold;"">
        INFORMED CONSENT INFORMATION
      </h1>
      <h2 style=""text-align: center; color: #333; font-size: 22px; margin-bottom: 20px; font-weight: bold;"">
        FOR RESEARCH PARTICIPATION
      </h2>
      
      <p style=""margin-bottom: 10px;""><strong>Study Title:</strong> The Effects of Mindfulness and Attention on Life Satisfaction and Memory</p>
      <p style=""margin-bottom: 10px;""><strong>Principal Investigator:</strong> Ella Bremmer</p>
      <p style=""margin-bottom: 10px;""><strong>Co-Principal Investigator:</strong> Dr. Gregory Cox</p>
      <p style=""margin-bottom: 20px;""><strong>IRB Study Number:</strong> STUDY00006288</p>

      <p style=""margin-bottom: 15px;"">I am a student at the University at Albany, in the Department of Psychology. I am planning to conduct a research study, which I invite you to take part in.</p>
      
      <p style=""margin-bottom: 25px;"">This form has important information about the reasons for doing this study, what we will ask you to do, and the way we would like to use the information we collect about you.</p>

      <h3 style=""color: #333; font-size: 18px; margin-top: 25px; margin-bottom: 10px; font-weight: bold;"">
        Why are you doing this study?
      </h3>
      <p style=""margin-bottom: 15px;"">You are being asked to participate in a research study that aims to understand if there is a relationship between mindfulness, the ability to pay attention, and life satisfaction.</p>
      
      <p style=""margin-bottom: 25px;"">The purpose of this study is to investigate if having better control over one's attention influences overall life satisfaction. Your participation will help us better understand if mindfulness and attention do have a significant effect on life satisfaction (i.e., how people feel about their lives overall). Then you will be asked to perform a conjunction visual search task to test your capacity to direct your attention over a sustained period.</p>

      <h3 style=""color: #333; font-size: 18px; margin-top: 25px; margin-bottom: 10px; font-weight: bold;"">
        Why am I eligible to participate in this study?
      </h3>
      <p style=""margin-bottom: 25px;"">You are eligible to participate because you are a student at UAlbany, are at least 18 years old, and are proficient in English.</p>

      <h3 style=""color: #333; font-size: 18px; margin-top: 25px; margin-bottom: 10px; font-weight: bold;"">
        What will I do if I choose to be in this study?
      </h3>
      <p style=""margin-bottom: 10px;"">If you choose to take part in our study, you will do the following:</p>
      <p style=""margin-bottom: 8px; margin-left: 20px;"">1. Read and agree to the informed consent.</p>
      <p style=""margin-bottom: 8px; margin-left: 40px;"">a. If you choose not to agree to the informed consent, you will be taken back to the SONA site.</p>
      <p style=""margin-bottom: 8px; margin-left: 20px;"">2. Complete a demographic questionnaire that asks about your age, English proficiency, gender, and race.</p>
      <p style=""margin-bottom: 8px; margin-left: 20px;"">3. Read instructions for the visual search task, which asks you to indicate if a target (a red triangle) is present among various other colored shapes. You should press the ""F"" key if a red triangle is present, or the ""J"" key if the target is absent.</p>
      <p style=""margin-bottom: 8px; margin-left: 20px;"">4. You will be asked to respond to 270 visual search trials, whith the opportunity to take short breaks as you go</p>
      <p style=""margin-bottom: 8px; margin-left: 20px;"">5. You will complete the Mindfulness Attention Awareness Scale (MAAS), the Satisfaction With Life Scale (SWLS), and the Big Five Inventory.</p>
      <p style=""margin-bottom: 25px; margin-left: 20px;"">6.	After all questionnaires are completed, participants will be thanked for their time and will be provided the study debriefing. Following the debriefing, you will be sent back to the SONA research site.</p>

      <h3 style=""color: #333; font-size: 18px; margin-top: 25px; margin-bottom: 10px; font-weight: bold;"">
        For how long will I participate?
      </h3>
      <p style=""margin-bottom: 25px;"">This study is a single online session that you can complete on a computer. The study can be completed in less than 30 minutes but could require as long as 45 minutes to complete.</p>

      <h3 style=""color: #333; font-size: 18px; margin-top: 25px; margin-bottom: 10px; font-weight: bold;"">
        Where will I need to go to participate?
      </h3>
      <p style=""margin-bottom: 25px;"">All study procedures will take place online and can be completed wherever you have internet connection.</p>

      <h3 style=""color: #333; font-size: 18px; margin-top: 25px; margin-bottom: 10px; font-weight: bold;"">
        Are there any costs I should be aware of?
      </h3>
      <p style=""margin-bottom: 25px;"">Participation is not expected to incur cost to participants. Free internet access is available anywhere on campus and in the university library.</p>

      <h3 style=""color: #333; font-size: 18px; margin-top: 25px; margin-bottom: 10px; font-weight: bold;"">
        What are the possible risks or discomforts?
      </h3>
      <p style=""margin-bottom: 15px;"">As with all research, there is a chance that confidentiality of the information we collect from you could be breached – we will take steps to minimize this risk, as discussed in more detail below.</p>
      
      <p style=""margin-bottom: 25px;"">The risks associated with participating in this study are minimal; however, you may experience mild discomfort when reflecting on your mindfulness or life satisfaction when answering questionnaires in the study. To help minimize this, you can withdraw from the study at any time without any consequences. The study will take place online, and you will have the opportunity to take breaks while completing the survey to reduce the risk of eye strain associated with the use of electronic devices.</p>

      <h3 style=""color: #333; font-size: 18px; margin-top: 25px; margin-bottom: 10px; font-weight: bold;"">
        What are the possible benefits for me or others?
      </h3>
      <p style=""margin-bottom: 25px;"">While there are no direct personal benefits to participants of this study, you may find value in reflecting on your mindfulness, attention, and its impact on life satisfaction by completing this survey. The data you contribute may help advance society's understanding of how mindfulness and attention relate to overall well-being, potentially informing future programs or interventions aimed at improving student mental health, attention, and life satisfaction.</p>

      <h3 style=""color: #333; font-size: 18px; margin-top: 25px; margin-bottom: 10px; font-weight: bold;"">
        Will I receive compensation for my participation?
      </h3>
      <p style=""margin-bottom: 25px;"">SONA partial class credit will be awarded via the Psychology Department SONA research pool after you complete the survey in its entirety. Participants who withdraw before completing the survey will not receive partial credit. You will not receive monetary compensation for your participation in this study.</p>

      <h3 style=""color: #333; font-size: 18px; margin-top: 25px; margin-bottom: 10px; font-weight: bold;"">
        How will you protect the information you collect about me, and how will that information be shared?
      </h3>
      <p style=""margin-bottom: 15px;"">Results of this study may be used in publications and presentations. Your data will be handled as confidentially as possible, and no identifiable information will be collected to link your data back to you. If results of this study are published or presented, only de-identified summaries of data will be used.</p>
      
      <p style=""margin-bottom: 25px;"">To minimize the risks to confidentiality, all data will be collected anonymously via Pavlovia.org which uses encryption to protect information (https://pavlovia.org/docs/home/ethics). Only the student researcher (Ella Bremmer), mentor (Pierce Johnson), and faculty advisor (Gregory Cox) will have password-protected access to the data. Data will be stored on secure, university approved computers.</p>

      <h3 style=""color: #333; font-size: 18px; margin-top: 25px; margin-bottom: 10px; font-weight: bold;"">
        Will my data be used in future research?
      </h3>
      <p style=""margin-bottom: 25px;"">No personal identifiers will be collected in the data you provide us. Data will not be used in future research, and will be deleted after the required retention period.</p>

      <h3 style=""color: #333; font-size: 18px; margin-top: 25px; margin-bottom: 10px; font-weight: bold;"">
        What are my rights as a research participant?
      </h3>
      <p style=""margin-bottom: 15px;"">Participation in this study is voluntary. You do not have to answer any question you do not want to answer. If at any time and for any reason, you would prefer not to participate in this study, please feel free not to. If at any time you would like to stop participating, you are welcome to stop. You can take a break or stop altogether. You may withdraw from this study at any time, and you will not be penalized in any way for deciding to stop participation.</p>
      
      <p style=""margin-bottom: 25px;"">If you decide to withdraw from this study, any information collected from you before withdrawing will not be used, and your data will be deleted.</p>

      <h3 style=""color: #333; font-size: 18px; margin-top: 25px; margin-bottom: 10px; font-weight: bold;"">
        What if I am a University at Albany student or employee?
      </h3>
      <p style=""margin-bottom: 25px;"">You may choose not to participate or to stop participating in this research at any time. This will not affect your class standing, grades, employment, or any other aspects of your relationship with the University at Albany.</p>

      <h3 style=""color: #333; font-size: 18px; margin-top: 25px; margin-bottom: 10px; font-weight: bold;"">
        Who can I contact if I have questions or concerns about this research study?
      </h3>
      <p style=""margin-bottom: 15px;"">If you have questions, please feel free to stop and email the investigator, Ella Bremmer (ebremmer@albany.edu) or advisors, Pierce Johnson (pjohnson4@albany.edu) and Dr. Greg Cox (gecox@albany.edu). If you have questions later, you may also contact the researchers.</p>
      
      <p style=""margin-bottom: 10px;"">If you have any questions about your rights as a participant in this research, you can contact the following office at the University at Albany:</p>
      
      <p style=""margin-bottom: 5px; margin-left: 20px;"">Institutional Review Board</p>
      <p style=""margin-bottom: 5px; margin-left: 20px;"">University at Albany</p>
      <p style=""margin-bottom: 5px; margin-left: 20px;"">Office of Regulatory and Research Compliance</p>
      <p style=""margin-bottom: 5px; margin-left: 20px;"">1400 Washington Ave, Biology 227</p>
      <p style=""margin-bottom: 5px; margin-left: 20px;"">Albany, NY 12222</p>
      <p style=""margin-bottom: 5px; margin-left: 20px;"">Phone: 1-866-857-5459</p>
      <p style=""margin-bottom: 25px; margin-left: 20px;"">Email: rco@albany.edu</p>

      <h3 style=""color: #333; font-size: 18px; margin-top: 30px; margin-bottom: 10px; font-weight: bold;"">
        Consent
      </h3>
      <p style=""margin-bottom: 20px;"">I have read this form and the research study has been explained to me. I have been given the opportunity to ask questions and my questions have been answered. If I have additional questions, I have been told whom to contact. I agree to participate in the research study described above. I understand that I have the opportunity to download and save a copy of this form for my records.</p>

      <div style=""background-color: #f9f9f9; border: 2px solid #4CAF50; border-radius: 5px; padding: 20px; margin-top: 20px; margin-bottom: 20px;"">
        <p style=""margin-bottom: 15px; font-weight: bold;"">To save a copy of this consent form for your records, press Ctrl+P (Windows/Linux) or Cmd+P (Mac) and select ""Save as PDF"".</p>
        <p style=""margin-bottom: 0; font-weight: bold;"">By clicking ""I Agree"" below, I confirm that I agree to participate in the research study described above, and that doing so serves as my written signature consenting to take part in the study.</p>
      </div>
    </div>
  ","0","true","","","","","","","","","","","","","","","",""
"instructions","3","2.1.0","10564","78346","intro_instructions","2240","","","","f","[{""page_index"":0,""viewing_time"":2240}]","","","","","","","","","","","","","",""
"html-keyboard-response","4","2.1.0","12579","78346","intermediate_slide_demo","null","<p style=""font-size:4vw"">Demographic Questionnaire</p>","null","","","","","","","","","","","","","","","","",""
"survey-multi-choice","5","2.1.0","18799","78346","demographics_english","6219","","{""english"":""Strongly agree""}","","","","[0]","","","","","","","","","","","","",""
"survey-text","7","2.1.0","22538","78346","demographics_age","3737","","{""age"":""18""}","","","","","","","","","","","","","","","","",""
"survey-multi-select","9","2.1.0","25925","78346","demographics_gender","3385","","{""gender"":[""Woman""]}","","","","[0]","","","","","","","","","","","","",""
"survey-multi-choice","11","2.1.0","29067","78346","demographics_race","3141","","{""race"":""White or Caucasian""}","","","","[0]","","","","","","","","","","","","",""
"html-keyboard-response","12","2.1.0","31068","78346","intermediate_slide_VS","null","<p style=""font-size:4vw"">Visual Search Task</p>","null","","","","","","","","","","","","","","","","",""
"preload","13","2.1.0","31314","78346","image_preload","","","","","","","","true","false","[]","[]","[]","","","","","","","",""
"html-button-response","14","2.1.0","37933","78346","vs_instructions","6619","<p>On the following screens, you will see a series of colored shapes (triangles, squares, and circles) appear.</p>
    <p>Please Press 'F' if there <strong>is</strong> a red triangle among the shapes you see.</p>
    <p>Press 'J' if there is <strong>not</strong> a red triangle among the shapes you see.</p>","0","","","","","","","","","","","","","","","","",""
"visual-search-circle","15","2.2.0","43320","78346","visual_search_trial","3884","","j","","","","","","","","","","null","red_blue_mix","0","[""images/Red_Circle.png"",""images/Red_Circle.png"",""images/Red_Circle.png"",""images/Blue_Circle.png"",""images/Blue_Triangle.png"",""images/Red_Circle.png"",""images/Blue_Triangle.png"",""images/Blue_Circle.png"",""images/Blue_Triangle.png""]","true","[[216,210],[249,131],[224,49],[153,3],[68,13],[9,76],[5,161],[56,229],[140,249]]","false",""
"visual-search-circle","16","2.2.0","45798","78346","visual_search_trial","965","","j","","","","","","","","","","null","red_circle","0","[""images/Red_Circle.png"",""images/Red_Circle.png"",""images/Red_Circle.png"",""images/Red_Circle.png"",""images/Red_Circle.png"",""images/Red_Circle.png""]","true","[[20,193],[131,249],[236,181],[229,56],[118,0],[13,68]]","false",""
"visual-search-circle","17","2.2.0","48115","78346","visual_search_trial","804","","j","","","","","","","","","","null","red_blue_mix","0","[""images/Red_Circle.png"",""images/Blue_Circle.png"",""images/Red_Circle.png"",""images/Blue_Circle.png"",""images/Blue_Triangle.png"",""images/Blue_Triangle.png""]","true","[[35,211],[155,246],[245,159],[214,38],[94,3],[4,90]]","false",""
"visual-search-circle","18","2.2.0","50292","78346","visual_search_trial","669","","j","","","","","","","","","","null","blue_triangle","0","[""images/Blue_Triangle.png"",""images/Blue_Triangle.png"",""images/Blue_Triangle.png""]","true","[[179,237],[194,21],[0,116]]","false",""
"visual-search-circle","19","2.2.0","52330","78346","visual_search_trial","535","","j","","","","","","","","","","null","red_circle","0","[""images/Red_Circle.png"",""images/Red_Circle.png"",""images/Red_Circle.png""]","true","[[32,41],[99,247],[243,86]]","false",""
"visual-search-circle","20","2.2.0","54284","78346","visual_search_trial","444","","f","","","","","","","","","","null","blue_triangle","0","[""images/Red_Triangle.png"",""images/Blue_Triangle.png"",""images/Blue_Triangle.png"",""images/Blue_Triangle.png"",""images/Blue_Triangle.png"",""images/Blue_Triangle.png""]","true","[[0,138],[74,239],[198,226],[249,111],[175,10],[51,23]]","true",""
"visual-search-circle","21","2.2.0","56381","78346","visual_search_trial","590","","j","","","","","","","","","","null","red_circle","0","[""images/Red_Circle.png"",""images/Red_Circle.png"",""images/Red_Circle.png"",""images/Red_Circle.png"",""images/Red_Circle.png"",""images/Red_Circle.png"",""images/Red_Circle.png"",""images/Red_Circle.png"",""images/Red_Circle.png""]","true","[[224,200],[249,118],[216,39],[140,0],[56,20],[5,88],[9,173],[68,236],[153,246]]","false",""
"visual-search-circle","22","2.2.0","58314","78346","visual_search_trial","429","","f","","","","","","","","","","null","blue_triangle","0","[""images/Red_Triangle.png"",""images/Blue_Triangle.png"",""images/Blue_Triangle.png"",""images/Blue_Triangle.png"",""images/Blue_Triangle.png"",""images/Blue_Triangle.png"",""images/Blue_Triangle.png"",""images/Blue_Triangle.png"",""images/Blue_Triangle.png""]","true","[[142,1],[58,18],[6,86],[9,171],[66,235],[150,247],[223,201],[249,120],[217,41]]","true",""
"visual-search-circle","23","2.2.0","60355","78346","visual_search_trial","535","","f","","","","","","","","","","null","red_blue_mix","0","[""images/Red_Triangle.png"",""images/Blue_Triangle.png"",""images/Blue_Triangle.png"",""images/Red_Circle.png"",""images/Red_Circle.png"",""images/Blue_Circle.png"",""images/Blue_Triangle.png"",""images/Blue_Triangle.png"",""images/Blue_Circle.png""]","true","[[103,1],[29,44],[0,125],[29,205],[103,248],[187,233],[242,167],[242,82],[187,16]]","true",""
"visual-search-circle","24","2.2.0","62321","78346","visual_search_trial","455","","f","","","","","","","","","","null","red_circle","0","[""images/Red_Triangle.png"",""images/Red_Circle.png"",""images/Red_Circle.png"",""images/Red_Circle.png"",""images/Red_Circle.png"",""images/Red_Circle.png""]","true","[[159,4],[38,35],[3,155],[90,245],[211,214],[246,94]]","true",""
"visual-search-circle","25","2.2.0","64259","78346","visual_search_trial","427","","f","","","","","","","","","","null","red_blue_mix","0","[""images/Red_Triangle.png"",""images/Blue_Triangle.png"",""images/Blue_Triangle.png"",""images/Blue_Circle.png"",""images/Blue_Triangle.png"",""images/Red_Circle.png""]","true","[[0,120],[58,231],[183,235],[249,129],[191,18],[66,14]]","true",""
"visual-search-circle","26","2.2.0","66226","78346","visual_search_trial","457","","f","","","","","","","","","","null","red_circle","0","[""images/Red_Triangle.png"",""images/Red_Circle.png"",""images/Red_Circle.png""]","true","[[0,129],[191,231],[183,14]]","true",""
"visual-search-circle","27","2.2.0","68215","78346","visual_search_trial","484","","j","","","","","","","","","","null","blue_triangle","0","[""images/Blue_Triangle.png"",""images/Blue_Triangle.png"",""images/Blue_Triangle.png"",""images/Blue_Triangle.png"",""images/Blue_Triangle.png"",""images/Blue_Triangle.png"",""images/Blue_Triangle.png"",""images/Blue_Triangle.png"",""images/Blue_Triangle.png""]","true","[[44,29],[1,103],[16,187],[82,242],[167,242],[233,187],[248,103],[205,29],[125,0]]","false",""
"visual-search-circle","28","2.2.0","70292","78346","visual_search_trial","559","","f","","","","","","","","","","null","red_blue_mix","0","[""images/Red_Triangle.png"",""images/Red_Circle.png"",""images/Blue_Triangle.png""]","true","[[6,163],[217,208],[150,2]]","true",""
"visual-search-circle","29","2.2.0","72228","78346","visual_search_trial","423","","f","","","","","","","","","","null","blue_triangle","0","[""images/Red_Triangle.png"",""images/Blue_Triangle.png"",""images/Blue_Triangle.png""]","true","[[118,249],[236,68],[20,56]]","true",""
"visual-search-circle","30","2.2.0","74222","78346","visual_search_trial","491","","f","","","","","","","","","","null","red_circle","0","[""images/Red_Triangle.png"",""images/Red_Circle.png"",""images/Red_Circle.png"",""images/Red_Circle.png"",""images/Red_Circle.png"",""images/Red_Circle.png"",""images/Red_Circle.png"",""images/Red_Circle.png"",""images/Red_Circle.png""]","true","[[42,30],[1,105],[17,189],[84,243],[169,241],[234,185],[247,101],[203,27],[122,0]]","true",""
"visual-search-circle","31","2.2.0","76137","78346","visual_search_trial","398","","j","","","","","","","","","","null","blue_triangle","0","[""images/Blue_Triangle.png"",""images/Blue_Triangle.png"",""images/Blue_Triangle.png"",""images/Blue_Triangle.png"",""images/Blue_Triangle.png"",""images/Blue_Triangle.png""]","true","[[4,92],[36,213],[157,245],[245,157],[213,36],[92,4]]","false",""
"visual-search-circle","32","2.2.0","78369","78346","visual_search_trial","725","","j","","","","","","","","","","null","red_blue_mix","0","[""images/Blue_Circle.png"",""images/Blue_Triangle.png"",""images/Red_Circle.png""]","true","[[84,243],[247,101],[42,30]]","false",""
"visual-search-circle","33","2.2.0","80496","78346","visual_search_trial","623","","j","","","","","","","","","","null","red_blue_mix","1","[""images/Blue_Circle.png"",""images/Red_Circle.png"",""images/Red_Circle.png"",""images/Blue_Triangle.png"",""images/Blue_Circle.png"",""images/Blue_Circle.png""]","true","[[173,9],[49,25],[0,140],[76,240],[200,224],[249,109]]","false",""
"visual-search-circle","34","2.2.0","82385","78346","visual_search_trial","386","","j","","","","","","","","","","null","blue_triangle","1","[""images/Blue_Triangle.png"",""images/Blue_Triangle.png"",""images/Blue_Triangle.png"",""images/Blue_Triangle.png"",""images/Blue_Triangle.png"",""images/Blue_Triangle.png"",""images/Blue_Triangle.png"",""images/Blue_Triangle.png"",""images/Blue_Triangle.png""]","true","[[84,6],[17,60],[1,144],[42,219],[122,249],[203,222],[247,148],[234,64],[169,8]]","false",""
"visual-search-circle","35","2.2.0","84475","78346","visual_search_trial","583","","f","","","","","","","","","","null","red_circle","1","[""images/Red_Triangle.png"",""images/Red_Circle.png"",""images/Red_Circle.png"",""images/Red_Circle.png"",""images/Red_Circle.png"",""images/Red_Circle.png"",""images/Red_Circle.png"",""images/Red_Circle.png"",""images/Red_Circle.png""]","true","[[11,177],[72,238],[157,245],[227,196],[249,114],[213,36],[135,0],[53,22],[4,92]]","true",""
"visual-search-circle","36","2.2.0","86370","78346","visual_search_trial","392","","j","","","","","","","","","","null","blue_triangle","1","[""images/Blue_Triangle.png"",""images/Blue_Triangle.png"",""images/Blue_Triangle.png"",""images/Blue_Triangle.png"",""images/Blue_Triangle.png"",""images/Blue_Triangle.png""]","true","[[155,246],[245,159],[214,38],[94,3],[4,90],[35,211]]","false",""
"visual-search-circle","37","2.2.0","88323","78346","visual_search_trial","441","","j","","","","","","","","","","null","red_circle","1","[""images/Red_Circle.png"",""images/Red_Circle.png"",""images/Red_Circle.png""]","true","[[241,80],[27,46],[105,248]]","false",""
"visual-search-circle","38","2.2.0","90224","78346","visual_search_trial","391","","f","","","","","","","","","","null","red_blue_mix","1","[""images/Red_Triangle.png"",""images/Blue_Triangle.png"",""images/Blue_Triangle.png"",""images/Blue_Circle.png"",""images/Blue_Triangle.png"",""images/Blue_Triangle.png"",""images/Blue_Circle.png"",""images/Blue_Circle.png"",""images/Blue_Triangle.png""]","true","[[249,138],[228,55],[159,4],[74,10],[12,70],[3,155],[51,226],[133,249],[211,214]]","true",""
"visual-search-circle","39","2.2.0","92195","78346","visual_search_trial","456","","f","","","","","","","","","","null","red_circle","1","[""images/Red_Triangle.png"",""images/Red_Circle.png"",""images/Red_Circle.png"",""images/Red_Circle.png"",""images/Red_Circle.png"",""images/Red_Circle.png""]","true","[[5,161],[96,246],[216,210],[244,88],[153,3],[33,39]]","true",""
"visual-search-circle","40","2.2.0","94243","78346","visual_search_trial","533","","j","","","","","","","","","","null","red_blue_mix","1","[""images/Blue_Circle.png"",""images/Blue_Triangle.png"",""images/Red_Circle.png""]","true","[[101,247],[243,84],[30,42]]","false",""
"visual-search-circle","41","2.2.0","96300","78346","visual_search_trial","544","","f","","","","","","","","","","null","red_circle","1","[""images/Red_Circle.png"",""images/Red_Circle.png"",""images/Red_Circle.png"",""images/Red_Circle.png"",""images/Red_Circle.png"",""images/Red_Circle.png""]","false","[[10,74],[23,198],[138,249],[239,175],[226,51],[111,0]]","false",""
"visual-search-circle","42","2.2.0","98668","78346","visual_search_trial","851","","f","","","","","","","","","","null","blue_triangle","1","[""images/Red_Triangle.png"",""images/Blue_Triangle.png"",""images/Blue_Triangle.png"",""images/Blue_Triangle.png"",""images/Blue_Triangle.png"",""images/Blue_Triangle.png"",""images/Blue_Triangle.png"",""images/Blue_Triangle.png"",""images/Blue_Triangle.png""]","true","[[246,94],[198,23],[116,0],[38,35],[0,111],[21,194],[90,245],[175,239],[237,179]]","true",""
"visual-search-circle","43","2.2.0","100715","78346","visual_search_trial","543","","f","","","","","","","","","","null","red_circle","1","[""images/Red_Triangle.png"",""images/Red_Circle.png"",""images/Red_Circle.png""]","true","[[20,56],[118,249],[236,68]]","true",""
"visual-search-circle","44","2.2.0","102955","78346","visual_search_trial","726","","f","","","","","","","","","","null","red_blue_mix","1","[""images/Red_Triangle.png"",""images/Red_Circle.png"",""images/Blue_Triangle.png""]","true","[[70,237],[249,116],[55,21]]","true",""
"visual-search-circle","45","2.2.0","104986","78346","visual_search_trial","517","","j","","","","","","","","","","null","red_circle","1","[""images/Red_Circle.png"",""images/Red_Circle.png"",""images/Red_Circle.png"",""images/Red_Circle.png"",""images/Red_Circle.png"",""images/Red_Circle.png"",""images/Red_Circle.png"",""images/Red_Circle.png"",""images/Red_Circle.png""]","true","[[84,243],[169,241],[234,185],[247,101],[203,27],[122,0],[42,30],[1,105],[17,189]]","false",""
"visual-search-circle","46","2.2.0","107041","78346","visual_search_trial","545","","j","","","","","","","","","","null","blue_triangle","1","[""images/Blue_Triangle.png"",""images/Blue_Triangle.png"",""images/Blue_Triangle.png""]","true","[[33,210],[244,161],[96,3]]","false",""
"visual-search-circle","47","2.2.0","109360","78346","visual_search_trial","811","","j","","","","","","","","","","null","red_blue_mix","1","[""images/Blue_Circle.png"",""images/Blue_Triangle.png"",""images/Blue_Circle.png"",""images/Red_Circle.png"",""images/Blue_Circle.png"",""images/Blue_Triangle.png"",""images/Blue_Triangle.png"",""images/Red_Circle.png"",""images/Red_Circle.png""]","true","[[62,233],[146,248],[220,205],[250,125],[220,44],[146,1],[62,16],[7,82],[7,167]]","false",""
"visual-search-circle","48","2.2.0","111426","78346","visual_search_trial","558","","f","","","","","","","","","","null","blue_triangle","1","[""images/Red_Triangle.png"",""images/Blue_Triangle.png"",""images/Blue_Triangle.png""]","true","[[231,191],[129,0],[14,183]]","true",""
"visual-search-circle","49","2.2.0","113481","78346","visual_search_trial","552","","f","","","","","","","","","","null","red_blue_mix","1","[""images/Red_Triangle.png"",""images/Red_Circle.png"",""images/Blue_Circle.png"",""images/Blue_Triangle.png"",""images/Red_Circle.png"",""images/Blue_Triangle.png""]","true","[[226,51],[111,0],[10,74],[23,198],[138,249],[239,175]]","true",""
"visual-search-circle","50","2.2.0","115413","78346","visual_search_trial","416","","f","","","","","","","","","","null","blue_triangle","1","[""images/Red_Triangle.png"",""images/Blue_Triangle.png"",""images/Blue_Triangle.png"",""images/Blue_Triangle.png"",""images/Blue_Triangle.png"",""images/Blue_Triangle.png""]","true","[[211,35],[90,4],[3,94],[38,214],[159,245],[246,155]]","true",""
"html-keyboard-response","51","2.1.0","118191","78346","break","2778","<p>Great job so far! Please rest for a few seconds before continuing.</p>
                 <p>Press the <strong>Z</strong> key on your keyboard to continue.</p>","z","","","","","","","","","","","","","","","","","Z"
"visual-search-circle","52","2.2.0","120506","78346","visual_search_trial","800","","f","","","","","","","","","","null","blue_triangle","2","[""images/Red_Triangle.png"",""images/Blue_Triangle.png"",""images/Blue_Triangle.png"",""images/Blue_Triangle.png"",""images/Blue_Triangle.png"",""images/Blue_Triangle.png"",""images/Blue_Triangle.png"",""images/Blue_Triangle.png"",""images/Blue_Triangle.png""]","true","[[101,2],[27,46],[0,127],[30,207],[105,248],[189,232],[243,165],[241,80],[185,15]]","true",""
"visual-search-circle","53","2.2.0","122580","78346","visual_search_trial","566","","f","","","","","","","","","","null","red_blue_mix","2","[""images/Red_Triangle.png"",""images/Blue_Triangle.png"",""images/Red_Circle.png"",""images/Blue_Triangle.png"",""images/Blue_Circle.png"",""images/Blue_Circle.png""]","true","[[247,99],[163,6],[41,32],[2,150],[86,243],[208,217]]","true",""
"visual-search-circle","54","2.2.0","124565","78346","visual_search_trial","479","","j","","","","","","","","","","null","blue_triangle","2","[""images/Blue_Triangle.png"",""images/Blue_Triangle.png"",""images/Blue_Triangle.png"",""images/Blue_Triangle.png"",""images/Blue_Triangle.png"",""images/Blue_Triangle.png"",""images/Blue_Triangle.png"",""images/Blue_Triangle.png"",""images/Blue_Triangle.png""]","true","[[96,3],[25,49],[0,131],[33,210],[109,249],[193,229],[244,161],[240,76],[181,13]]","false",""
"visual-search-circle","55","2.2.0","126684","78346","visual_search_trial","612","","j","","","","","","","","","","null","red_blue_mix","2","[""images/Blue_Circle.png"",""images/Red_Circle.png"",""images/Blue_Circle.png""]","true","[[60,17],[64,234],[249,122]]","false",""
"visual-search-circle","56","2.2.0","128743","78346","visual_search_trial","552","","j","","","","","","","","","","null","red_circle","2","[""images/Red_Circle.png"",""images/Red_Circle.png"",""images/Red_Circle.png""]","true","[[9,76],[140,249],[224,49]]","false",""
"visual-search-circle","57","2.2.0","130874","78346","visual_search_trial","623","","j","","","","","","","","","","null","blue_triangle","2","[""images/Blue_Triangle.png"",""images/Blue_Triangle.png"",""images/Blue_Triangle.png"",""images/Blue_Triangle.png"",""images/Blue_Triangle.png"",""images/Blue_Triangle.png""]","true","[[163,243],[247,150],[208,32],[86,6],[2,99],[41,217]]","false",""
"visual-search-circle","58","2.2.0","132927","78346","visual_search_trial","537","","f","","","","","","","","","","null","red_circle","2","[""images/Red_Triangle.png"",""images/Red_Circle.png"",""images/Red_Circle.png"",""images/Red_Circle.png"",""images/Red_Circle.png"",""images/Red_Circle.png"",""images/Red_Circle.png"",""images/Red_Circle.png"",""images/Red_Circle.png""]","true","[[229,56],[161,5],[76,9],[13,68],[3,153],[49,224],[131,249],[210,216],[249,140]]","true",""
"visual-search-circle","59","2.2.0","134936","78346","visual_search_trial","507","","f","","","","","","","","","","null","red_blue_mix","2","[""images/Red_Triangle.png"",""images/Blue_Triangle.png"",""images/Red_Circle.png"",""images/Blue_Triangle.png"",""images/Red_Circle.png"",""images/Blue_Circle.png"",""images/Blue_Triangle.png"",""images/Blue_Triangle.png"",""images/Blue_Triangle.png""]","true","[[249,109],[210,33],[131,0],[49,25],[3,96],[13,181],[76,240],[161,244],[229,193]]","true",""
"visual-search-circle","60","2.2.0","136883","78346","visual_search_trial","441","","f","","","","","","","","","","null","red_circle","2","[""images/Red_Triangle.png"",""images/Red_Circle.png"",""images/Red_Circle.png""]","true","[[219,207],[148,2],[6,165]]","true",""
"visual-search-circle","61","2.2.0","138764","78346","visual_search_trial","370","","f","","","","","","","","","","null","blue_triangle","2","[""images/Red_Triangle.png"",""images/Blue_Triangle.png"",""images/Blue_Triangle.png""]","true","[[35,38],[94,246],[245,90]]","true",""
"visual-search-circle","62","2.2.0","140724","78346","visual_search_trial","453","","j","","","","","","","","","","null","red_circle","2","[""images/Red_Circle.png"",""images/Red_Circle.png"",""images/Red_Circle.png"",""images/Red_Circle.png"",""images/Red_Circle.png"",""images/Red_Circle.png"",""images/Red_Circle.png"",""images/Red_Circle.png"",""images/Red_Circle.png""]","true","[[51,23],[3,94],[12,179],[74,239],[159,245],[228,194],[249,111],[211,35],[133,0]]","false",""
"visual-search-circle","63","2.2.0","142802","78346","visual_search_trial","565","","j","","","","","","","","","","null","red_blue_mix","2","[""images/Red_Circle.png"",""images/Red_Circle.png"",""images/Blue_Triangle.png"",""images/Blue_Circle.png"",""images/Blue_Circle.png"",""images/Red_Circle.png""]","true","[[0,118],[56,229],[181,236],[249,131],[193,20],[68,13]]","false",""
"visual-search-circle","64","2.2.0","144702","78346","visual_search_trial","393","","j","","","","","","","","","","null","red_circle","2","[""images/Red_Circle.png"",""images/Red_Circle.png"",""images/Red_Circle.png"",""images/Red_Circle.png"",""images/Red_Circle.png"",""images/Red_Circle.png""]","true","[[167,7],[44,29],[1,146],[82,242],[205,220],[248,103]]","false",""
"visual-search-circle","65","2.2.0","146636","78346","visual_search_trial","425","","f","","","","","","","","","","null","blue_triangle","2","[""images/Red_Triangle.png"",""images/Blue_Triangle.png"",""images/Blue_Triangle.png"",""images/Blue_Triangle.png"",""images/Blue_Triangle.png"",""images/Blue_Triangle.png""]","true","[[237,70],[133,0],[21,55],[12,179],[116,249],[228,194]]","true",""
"visual-search-circle","66","2.2.0","148889","78346","visual_search_trial","745","","j","","","","","","","","","","null","red_blue_mix","2","[""images/Red_Circle.png"",""images/Blue_Circle.png"",""images/Blue_Circle.png"",""images/Blue_Triangle.png"",""images/Blue_Circle.png"",""images/Blue_Circle.png"",""images/Blue_Triangle.png"",""images/Red_Circle.png"",""images/Blue_Triangle.png""]","true","[[25,49],[0,131],[33,210],[109,249],[193,229],[244,161],[240,76],[181,13],[96,3]]","false",""
"visual-search-circle","67","2.2.0","150921","78346","visual_search_trial","529","","j","","","","","","","","","","null","blue_triangle","2","[""images/Blue_Triangle.png"",""images/Blue_Triangle.png"",""images/Blue_Triangle.png""]","true","[[191,231],[183,14],[0,129]]","false",""
"visual-search-circle","68","2.2.0","152917","78346","visual_search_trial","484","","f","","","","","","","","","","null","red_circle","2","[""images/Red_Triangle.png"",""images/Red_Circle.png"",""images/Red_Circle.png"",""images/Red_Circle.png"",""images/Red_Circle.png"",""images/Red_Circle.png""]","true","[[179,12],[55,21],[0,133],[70,237],[194,228],[249,116]]","true",""
"visual-search-circle","69","2.2.0","154858","78346","visual_search_trial","427","","f","","","","","","","","","","null","red_blue_mix","2","[""images/Red_Triangle.png"",""images/Blue_Triangle.png"",""images/Blue_Circle.png""]","true","[[2,101],[165,243],[207,30]]","true",""
"visual-search-circle","70","2.2.0","156880","78346","visual_search_trial","518","","f","","","","","","","","","","null","red_blue_mix","3","[""images/Red_Triangle.png"",""images/Red_Circle.png"",""images/Red_Circle.png"",""images/Blue_Circle.png"",""images/Red_Circle.png"",""images/Red_Circle.png""]","true","[[234,64],[127,0],[17,60],[15,185],[122,249],[232,189]]","true",""
"visual-search-circle","71","2.2.0","158786","78346","visual_search_trial","397","","f","","","","","","","","","","null","blue_triangle","3","[""images/Red_Triangle.png"",""images/Blue_Triangle.png"",""images/Blue_Triangle.png""]","true","[[80,8],[46,222],[248,144]]","true",""
"visual-search-circle","72","2.2.0","160742","78346","visual_search_trial","449","","j","","","","","","","","","","null","red_circle","3","[""images/Red_Circle.png"",""images/Red_Circle.png"",""images/Red_Circle.png""]","true","[[70,12],[55,228],[249,133]]","false",""
"visual-search-circle","73","2.2.0","162709","78346","visual_search_trial","464","","j","","","","","","","","","","null","blue_triangle","3","[""images/Blue_Triangle.png"",""images/Blue_Triangle.png"",""images/Blue_Triangle.png"",""images/Blue_Triangle.png"",""images/Blue_Triangle.png"",""images/Blue_Triangle.png""]","true","[[249,127],[189,17],[64,15],[0,122],[60,232],[185,234]]","false",""
"visual-search-circle","74","2.2.0","164840","78346","visual_search_trial","620","","j","","","","","","","","","","null","red_circle","3","[""images/Red_Circle.png"",""images/Red_Circle.png"",""images/Red_Circle.png"",""images/Red_Circle.png"",""images/Red_Circle.png"",""images/Red_Circle.png""]","true","[[233,62],[125,0],[16,62],[16,187],[125,250],[233,187]]","false",""
"visual-search-circle","75","2.2.0","166994","78346","visual_search_trial","651","","f","","","","","","","","","","null","blue_triangle","3","[""images/Red_Triangle.png"",""images/Blue_Triangle.png"",""images/Blue_Triangle.png"",""images/Blue_Triangle.png"",""images/Blue_Triangle.png"",""images/Blue_Triangle.png""]","true","[[88,5],[3,96],[39,216],[161,244],[246,153],[210,33]]","true",""
"visual-search-circle","76","2.2.0","168972","78346","visual_search_trial","462","","j","","","","","","","","","","null","red_circle","3","[""images/Red_Circle.png"",""images/Red_Circle.png"",""images/Red_Circle.png"",""images/Red_Circle.png"",""images/Red_Circle.png"",""images/Red_Circle.png"",""images/Red_Circle.png"",""images/Red_Circle.png"",""images/Red_Circle.png""]","true","[[236,68],[173,9],[88,5],[20,56],[0,140],[39,216],[118,249],[200,224],[246,153]]","false",""
"visual-search-circle","77","2.2.0","171106","78346","visual_search_trial","618","","j","","","","","","","","","","null","red_blue_mix","3","[""images/Blue_Circle.png"",""images/Blue_Circle.png"",""images/Blue_Circle.png"",""images/Blue_Triangle.png"",""images/Red_Circle.png"",""images/Blue_Triangle.png""]","true","[[88,244],[210,216],[246,96],[161,5],[39,33],[3,153]]","false",""
"visual-search-circle","78","2.2.0","173092","78346","visual_search_trial","485","","j","","","","","","","","","","null","red_circle","3","[""images/Red_Triangle.png"",""images/Red_Circle.png"",""images/Red_Circle.png""]","false","[[171,240],[201,26],[1,107]]","true",""
"visual-search-circle","79","2.2.0","175242","78346","visual_search_trial","644","","j","","","","","","","","","","null","blue_triangle","3","[""images/Blue_Triangle.png"",""images/Blue_Triangle.png"",""images/Blue_Triangle.png""]","true","[[193,229],[181,13],[0,131]]","false",""
"visual-search-circle","80","2.2.0","177166","78346","visual_search_trial","414","","j","","","","","","","","","","null","red_blue_mix","3","[""images/Red_Circle.png"",""images/Red_Circle.png"",""images/Blue_Circle.png""]","true","[[181,236],[193,20],[0,118]]","false",""
"visual-search-circle","81","2.2.0","179164","78346","visual_search_trial","494","","f","","","","","","","","","","null","red_circle","3","[""images/Red_Triangle.png"",""images/Red_Circle.png"",""images/Red_Circle.png"",""images/Red_Circle.png"",""images/Red_Circle.png"",""images/Red_Circle.png""]","true","[[107,248],[223,201],[240,78],[142,1],[26,48],[9,171]]","true",""
"visual-search-circle","82","2.2.0","181282","78346","visual_search_trial","609","","j","","","","","","","","","","null","red_blue_mix","3","[""images/Blue_Triangle.png"",""images/Blue_Triangle.png"",""images/Red_Circle.png"",""images/Blue_Circle.png"",""images/Blue_Circle.png"",""images/Blue_Circle.png"",""images/Blue_Triangle.png"",""images/Blue_Triangle.png"",""images/Red_Circle.png""]","true","[[8,80],[6,165],[60,232],[144,248],[219,207],[249,127],[222,46],[148,2],[64,15]]","false",""
"visual-search-circle","83","2.2.0","183286","78346","visual_search_trial","491","","f","","","","","","","","","","null","blue_triangle","3","[""images/Red_Triangle.png"",""images/Blue_Triangle.png"",""images/Blue_Triangle.png"",""images/Blue_Triangle.png"",""images/Blue_Triangle.png"",""images/Blue_Triangle.png"",""images/Blue_Triangle.png"",""images/Blue_Triangle.png"",""images/Blue_Triangle.png""]","true","[[181,13],[96,3],[25,49],[0,131],[33,210],[109,249],[193,229],[244,161],[240,76]]","true",""
"visual-search-circle","84","2.2.0","185247","78346","visual_search_trial","451","","f","","","","","","","","","","null","red_circle","3","[""images/Red_Triangle.png"",""images/Red_Circle.png"",""images/Red_Circle.png"",""images/Red_Circle.png"",""images/Red_Circle.png"",""images/Red_Circle.png"",""images/Red_Circle.png"",""images/Red_Circle.png"",""images/Red_Circle.png""]","true","[[111,249],[194,228],[245,159],[239,74],[179,12],[94,3],[23,51],[0,133],[35,211]]","true",""
"visual-search-circle","85","2.2.0","187174","78346","visual_search_trial","416","","f","","","","","","","","","","null","red_blue_mix","3","[""images/Red_Triangle.png"",""images/Blue_Triangle.png"",""images/Red_Circle.png""]","true","[[208,32],[2,99],[163,243]]","true",""
"visual-search-circle","86","2.2.0","189064","78346","visual_search_trial","379","","j","","","","","","","","","","null","blue_triangle","3","[""images/Blue_Triangle.png"",""images/Blue_Triangle.png"",""images/Blue_Triangle.png"",""images/Blue_Triangle.png"",""images/Blue_Triangle.png"",""images/Blue_Triangle.png"",""images/Blue_Triangle.png"",""images/Blue_Triangle.png"",""images/Blue_Triangle.png""]","true","[[129,0],[48,26],[2,99],[14,183],[78,240],[163,243],[231,191],[248,107],[208,32]]","false",""
"visual-search-circle","87","2.2.0","190961","78346","visual_search_trial","388","","f","","","","","","","","","","null","red_blue_mix","3","[""images/Red_Triangle.png"",""images/Red_Circle.png"",""images/Blue_Circle.png"",""images/Blue_Triangle.png"",""images/Blue_Circle.png"",""images/Red_Circle.png"",""images/Blue_Triangle.png"",""images/Blue_Circle.png"",""images/Blue_Triangle.png""]","true","[[193,229],[244,161],[240,76],[181,13],[96,3],[25,49],[0,131],[33,210],[109,249]]","true",""
"html-keyboard-response","88","2.1.0","193795","78346","break","2834","<p>Great job so far! Please rest for a few seconds before continuing.</p>
                 <p>Press the <strong>C</strong> key on your keyboard to continue.</p>","c","","","","","","","","","","","","","","","","","C"
"visual-search-circle","89","2.2.0","195877","78346","visual_search_trial","570","","j","","","","","","","","","","null","red_blue_mix","4","[""images/Blue_Circle.png"",""images/Blue_Triangle.png"",""images/Blue_Circle.png""]","true","[[203,27],[1,105],[169,241]]","false",""
"visual-search-circle","90","2.2.0","197855","78346","visual_search_trial","476","","j","","","","","","","","","","null","red_circle","4","[""images/Red_Circle.png"",""images/Red_Circle.png"",""images/Red_Circle.png"",""images/Red_Circle.png"",""images/Red_Circle.png"",""images/Red_Circle.png""]","true","[[1,146],[82,242],[205,220],[248,103],[167,7],[44,29]]","false",""
"visual-search-circle","91","2.2.0","199814","78346","visual_search_trial","445","","f","","","","","","","","","","null","blue_triangle","4","[""images/Red_Triangle.png"",""images/Blue_Triangle.png"",""images/Blue_Triangle.png"",""images/Blue_Triangle.png"",""images/Blue_Triangle.png"",""images/Blue_Triangle.png"",""images/Blue_Triangle.png"",""images/Blue_Triangle.png"",""images/Blue_Triangle.png""]","true","[[33,39],[0,118],[25,200],[96,246],[181,236],[240,173],[244,88],[193,20],[109,0]]","true",""
"visual-search-circle","92","2.2.0","201703","78346","visual_search_trial","385","","f","","","","","","","","","","null","red_circle","4","[""images/Red_Triangle.png"",""images/Red_Circle.png"",""images/Red_Circle.png"",""images/Red_Circle.png"",""images/Red_Circle.png"",""images/Red_Circle.png""]","true","[[3,155],[90,245],[211,214],[246,94],[159,4],[38,35]]","true",""
"visual-search-circle","93","2.2.0","203609","78346","visual_search_trial","404","","j","","","","","","","","","","null","blue_triangle","4","[""images/Blue_Triangle.png"",""images/Blue_Triangle.png"",""images/Blue_Triangle.png""]","true","[[0,109],[173,240],[200,25]]","false",""
"visual-search-circle","94","2.2.0","205537","78346","visual_search_trial","425","","f","","","","","","","","","","null","red_blue_mix","4","[""images/Red_Triangle.png"",""images/Red_Circle.png"",""images/Red_Circle.png""]","true","[[72,11],[53,227],[249,135]]","true",""
"visual-search-circle","95","2.2.0","207451","78346","visual_search_trial","406","","f","","","","","","","","","","null","blue_triangle","4","[""images/Red_Triangle.png"",""images/Blue_Triangle.png"",""images/Blue_Triangle.png""]","true","[[220,44],[7,82],[146,248]]","true",""
"visual-search-circle","96","2.2.0","209400","78346","visual_search_trial","436","","f","","","","","","","","","","null","red_circle","4","[""images/Red_Circle.png"",""images/Red_Circle.png"",""images/Red_Circle.png""]","false","[[16,187],[233,187],[125,0]]","false",""
"visual-search-circle","97","2.2.0","212873","78346","visual_search_trial","1964","","j","","","","","","","","","","null","red_blue_mix","4","[""images/Blue_Circle.png"",""images/Red_Circle.png"",""images/Blue_Triangle.png"",""images/Red_Circle.png"",""images/Red_Circle.png"",""images/Blue_Circle.png"",""images/Blue_Circle.png"",""images/Blue_Circle.png"",""images/Blue_Circle.png""]","true","[[84,6],[17,60],[1,144],[42,219],[122,249],[203,222],[247,148],[234,64],[169,8]]","false",""
"visual-search-circle","98","2.2.0","214907","78346","visual_search_trial","523","","f","","","","","","","","","","null","blue_triangle","4","[""images/Red_Triangle.png"",""images/Blue_Triangle.png"",""images/Blue_Triangle.png"",""images/Blue_Triangle.png"",""images/Blue_Triangle.png"",""images/Blue_Triangle.png""]","true","[[213,36],[92,4],[4,92],[36,213],[157,245],[245,157]]","true",""
"visual-search-circle","99","2.2.0","216908","78346","visual_search_trial","488","","f","","","","","","","","","","null","red_circle","4","[""images/Red_Triangle.png"",""images/Red_Circle.png"",""images/Red_Circle.png"",""images/Red_Circle.png"",""images/Red_Circle.png"",""images/Red_Circle.png"",""images/Red_Circle.png"",""images/Red_Circle.png"",""images/Red_Circle.png""]","true","[[245,157],[238,72],[177,11],[92,4],[22,53],[0,135],[36,213],[114,249],[196,227]]","true",""
"visual-search-circle","100","2.2.0","219089","78346","visual_search_trial","674","","f","","","","","","","","","","null","red_blue_mix","4","[""images/Red_Triangle.png"",""images/Red_Circle.png"",""images/Blue_Triangle.png"",""images/Blue_Triangle.png"",""images/Blue_Circle.png"",""images/Blue_Circle.png"",""images/Blue_Circle.png"",""images/Blue_Triangle.png"",""images/Blue_Circle.png""]","true","[[107,1],[32,41],[0,120],[26,201],[99,247],[183,235],[240,171],[243,86],[191,18]]","true",""
"visual-search-circle","101","2.2.0","221298","78346","visual_search_trial","706","","j","","","","","","","","","","null","blue_triangle","4","[""images/Blue_Triangle.png"",""images/Blue_Triangle.png"",""images/Blue_Triangle.png"",""images/Blue_Triangle.png"",""images/Blue_Triangle.png"",""images/Blue_Triangle.png""]","true","[[135,0],[22,53],[11,177],[114,249],[227,196],[238,72]]","false",""
"visual-search-circle","102","2.2.0","223647","78346","visual_search_trial","845","","j","","","","","","","","","","null","red_blue_mix","4","[""images/Blue_Triangle.png"",""images/Blue_Triangle.png"",""images/Red_Circle.png"",""images/Blue_Triangle.png"",""images/Red_Circle.png"",""images/Red_Circle.png""]","true","[[2,148],[84,243],[207,219],[247,101],[165,6],[42,30]]","false",""
"visual-search-circle","103","2.2.0","225639","78346","visual_search_trial","488","","j","","","","","","","","","","null","red_circle","4","[""images/Red_Circle.png"",""images/Red_Circle.png"",""images/Red_Circle.png"",""images/Red_Circle.png"",""images/Red_Circle.png"",""images/Red_Circle.png"",""images/Red_Circle.png"",""images/Red_Circle.png"",""images/Red_Circle.png""]","true","[[23,198],[94,246],[179,237],[239,175],[245,90],[194,21],[111,0],[35,38],[0,116]]","false",""
"visual-search-circle","104","2.2.0","227989","78346","visual_search_trial","837","","j","","","","","","","","","","null","blue_triangle","4","[""images/Blue_Triangle.png"",""images/Blue_Triangle.png"",""images/Blue_Triangle.png"",""images/Blue_Triangle.png"",""images/Blue_Triangle.png"",""images/Blue_Triangle.png"",""images/Blue_Triangle.png"",""images/Blue_Triangle.png"",""images/Blue_Triangle.png""]","true","[[58,231],[142,248],[217,208],[249,129],[223,48],[150,2],[66,14],[9,78],[6,163]]","false",""
"visual-search-circle","105","2.2.0","230045","78346","visual_search_trial","546","","f","","","","","","","","","","null","red_circle","4","[""images/Red_Triangle.png"",""images/Red_Circle.png"",""images/Red_Circle.png""]","true","[[1,142],[201,223],[171,9]]","true",""
"visual-search-circle","106","2.2.0","232017","78346","visual_search_trial","456","","f","","","","","","","","","","null","red_blue_mix","4","[""images/Red_Triangle.png"",""images/Red_Circle.png"",""images/Blue_Triangle.png"",""images/Red_Circle.png"",""images/Blue_Circle.png"",""images/Red_Circle.png""]","true","[[26,48],[9,171],[107,248],[223,201],[240,78],[142,1]]","true",""
"visual-search-circle","107","2.2.0","233978","78346","visual_search_trial","446","","j","","","","","","","","","","null","red_circle","5","[""images/Red_Circle.png"",""images/Red_Circle.png"",""images/Red_Circle.png""]","true","[[17,60],[122,249],[234,64]]","false",""
"visual-search-circle","108","2.2.0","235935","78346","visual_search_trial","440","","f","","","","","","","","","","null","red_blue_mix","5","[""images/Red_Triangle.png"",""images/Blue_Circle.png"",""images/Blue_Circle.png""]","true","[[2,148],[207,219],[165,6]]","true",""
"visual-search-circle","109","2.2.0","237964","78346","visual_search_trial","518","","f","","","","","","","","","","null","red_circle","5","[""images/Red_Triangle.png"",""images/Red_Circle.png"",""images/Red_Circle.png""]","true","[[5,88],[153,246],[216,39]]","true",""
"visual-search-circle","110","2.2.0","239938","78346","visual_search_trial","463","","j","","","","","","","","","","null","blue_triangle","5","[""images/Blue_Triangle.png"",""images/Blue_Triangle.png"",""images/Blue_Triangle.png""]","true","[[247,148],[84,6],[42,219]]","false",""
"visual-search-circle","111","2.2.0","242002","78346","visual_search_trial","558","","f","","","","","","","","","","null","red_blue_mix","5","[""images/Red_Triangle.png"",""images/Red_Circle.png"",""images/Red_Circle.png"",""images/Red_Circle.png"",""images/Blue_Triangle.png"",""images/Red_Circle.png"",""images/Red_Circle.png"",""images/Blue_Circle.png"",""images/Blue_Circle.png""]","true","[[56,229],[140,249],[216,210],[249,131],[224,49],[153,3],[68,13],[9,76],[5,161]]","true",""
"visual-search-circle","112","2.2.0","243933","78346","visual_search_trial","430","","j","","","","","","","","","","null","red_circle","5","[""images/Red_Circle.png"",""images/Red_Circle.png"",""images/Red_Circle.png"",""images/Red_Circle.png"",""images/Red_Circle.png"",""images/Red_Circle.png"",""images/Red_Circle.png"",""images/Red_Circle.png"",""images/Red_Circle.png""]","true","[[10,175],[70,237],[155,246],[226,198],[249,116],[214,38],[138,0],[55,21],[4,90]]","false",""
"visual-search-circle","113","2.2.0","245966","78346","visual_search_trial","523","","j","","","","","","","","","","null","blue_triangle","5","[""images/Blue_Triangle.png"",""images/Blue_Triangle.png"",""images/Blue_Triangle.png"",""images/Blue_Triangle.png"",""images/Blue_Triangle.png"",""images/Blue_Triangle.png"",""images/Blue_Triangle.png"",""images/Blue_Triangle.png"",""images/Blue_Triangle.png""]","true","[[193,20],[109,0],[33,39],[0,118],[25,200],[96,246],[181,236],[240,173],[244,88]]","false",""
"visual-search-circle","114","2.2.0","248083","78346","visual_search_trial","607","","f","","","","","","","","","","null","red_circle","5","[""images/Red_Triangle.png"",""images/Red_Circle.png"",""images/Red_Circle.png"",""images/Red_Circle.png"",""images/Red_Circle.png"",""images/Red_Circle.png""]","true","[[142,248],[240,171],[223,48],[107,1],[9,78],[26,201]]","true",""
"visual-search-circle","115","2.2.0","250109","78346","visual_search_trial","516","","j","","","","","","","","","","null","red_blue_mix","5","[""images/Blue_Circle.png"",""images/Blue_Triangle.png"",""images/Red_Circle.png"",""images/Red_Circle.png"",""images/Blue_Triangle.png"",""images/Red_Circle.png""]","true","[[133,249],[237,179],[228,55],[116,0],[12,70],[21,194]]","false",""
"visual-search-circle","116","2.2.0","252084","78346","visual_search_trial","466","","f","","","","","","","","","","null","blue_triangle","5","[""images/Red_Triangle.png"",""images/Blue_Triangle.png"",""images/Blue_Triangle.png"",""images/Blue_Triangle.png"",""images/Blue_Triangle.png"",""images/Blue_Triangle.png"",""images/Blue_Triangle.png"",""images/Blue_Triangle.png"",""images/Blue_Triangle.png""]","true","[[231,191],[248,107],[208,32],[129,0],[48,26],[2,99],[14,183],[78,240],[163,243]]","true",""
"visual-search-circle","117","2.2.0","254055","78346","visual_search_trial","457","","j","","","","","","","","","","null","red_circle","5","[""images/Red_Circle.png"",""images/Red_Circle.png"",""images/Red_Circle.png"",""images/Red_Circle.png"",""images/Red_Circle.png"",""images/Red_Circle.png""]","true","[[242,167],[220,44],[103,1],[7,82],[29,205],[146,248]]","false",""
"visual-search-circle","118","2.2.0","256046","78346","visual_search_trial","475","","f","","","","","","","","","","null","blue_triangle","5","[""images/Red_Triangle.png"",""images/Blue_Triangle.png"",""images/Blue_Triangle.png"",""images/Blue_Triangle.png"",""images/Blue_Triangle.png"",""images/Blue_Triangle.png""]","true","[[191,18],[66,14],[0,120],[58,231],[183,235],[249,129]]","true",""
"visual-search-circle","119","2.2.0","258012","78346","visual_search_trial","464","","j","","","","","","","","","","null","red_blue_mix","5","[""images/Blue_Circle.png"",""images/Blue_Circle.png"",""images/Blue_Triangle.png""]","true","[[53,227],[249,135],[72,11]]","false",""
"visual-search-circle","120","2.2.0","259941","78346","visual_search_trial","428","","f","","","","","","","","","","null","blue_triangle","5","[""images/Red_Triangle.png"",""images/Blue_Triangle.png"",""images/Blue_Triangle.png""]","true","[[165,6],[2,148],[207,219]]","true",""
"visual-search-circle","121","2.2.0","261960","78346","visual_search_trial","514","","j","","","","","","","","","","null","red_blue_mix","5","[""images/Red_Circle.png"",""images/Blue_Circle.png"",""images/Red_Circle.png"",""images/Blue_Circle.png"",""images/Blue_Circle.png"",""images/Blue_Triangle.png"",""images/Blue_Circle.png"",""images/Red_Circle.png"",""images/Blue_Triangle.png""]","true","[[82,7],[16,62],[1,146],[44,220],[125,250],[205,220],[248,146],[233,62],[167,7]]","false",""
"visual-search-circle","122","2.2.0","264006","78346","visual_search_trial","529","","j","","","","","","","","","","null","blue_triangle","5","[""images/Blue_Triangle.png"",""images/Blue_Triangle.png"",""images/Blue_Triangle.png"",""images/Blue_Triangle.png"",""images/Blue_Triangle.png"",""images/Blue_Triangle.png""]","true","[[217,41],[99,2],[6,86],[32,208],[150,247],[243,163]]","false",""
"visual-search-circle","123","2.2.0","266019","78346","visual_search_trial","502","","f","","","","","","","","","","null","red_blue_mix","5","[""images/Red_Triangle.png"",""images/Red_Circle.png"",""images/Blue_Triangle.png"",""images/Blue_Triangle.png"",""images/Red_Circle.png"",""images/Red_Circle.png""]","true","[[185,234],[249,127],[189,17],[64,15],[0,122],[60,232]]","true",""
"visual-search-circle","124","2.2.0","267989","78346","visual_search_trial","460","","f","","","","","","","","","","null","red_circle","5","[""images/Red_Triangle.png"",""images/Red_Circle.png"",""images/Red_Circle.png"",""images/Red_Circle.png"",""images/Red_Circle.png"",""images/Red_Circle.png"",""images/Red_Circle.png"",""images/Red_Circle.png"",""images/Red_Circle.png""]","true","[[169,241],[234,185],[247,101],[203,27],[122,0],[42,30],[1,105],[17,189],[84,243]]","true",""
"html-keyboard-response","125","2.1.0","305590","78346","break","37605","<p>Great job so far! Please rest for a few seconds before continuing.</p>
                 <p>Press the <strong>X</strong> key on your keyboard to continue.</p>","x","","","","","","","","","","","","","","","","","X"
"visual-search-circle","126","2.2.0","308222","78346","visual_search_trial","1121","","j","","","","","","","","","","null","red_blue_mix","6","[""images/Red_Circle.png"",""images/Blue_Triangle.png"",""images/Red_Circle.png""]","true","[[96,246],[244,88],[33,39]]","false",""
"visual-search-circle","127","2.2.0","310270","78346","visual_search_trial","543","","j","","","","","","","","","","null","red_circle","6","[""images/Red_Circle.png"",""images/Red_Circle.png"",""images/Red_Circle.png"",""images/Red_Circle.png"",""images/Red_Circle.png"",""images/Red_Circle.png""]","true","[[14,183],[120,249],[231,191],[235,66],[129,0],[18,58]]","false",""
"visual-search-circle","128","2.2.0","312258","78346","visual_search_trial","476","","f","","","","","","","","","","null","blue_triangle","6","[""images/Red_Triangle.png"",""images/Blue_Triangle.png"",""images/Blue_Triangle.png""]","true","[[249,120],[58,18],[66,235]]","true",""
"visual-search-circle","129","2.2.0","314245","78346","visual_search_trial","479","","f","","","","","","","","","","null","red_blue_mix","6","[""images/Red_Triangle.png"",""images/Blue_Triangle.png"",""images/Blue_Circle.png"",""images/Blue_Triangle.png"",""images/Red_Circle.png"",""images/Red_Circle.png"",""images/Blue_Triangle.png"",""images/Blue_Triangle.png"",""images/Red_Circle.png""]","true","[[222,46],[148,2],[64,15],[8,80],[6,165],[60,232],[144,248],[219,207],[249,127]]","true",""
"visual-search-circle","130","2.2.0","316103","78346","visual_search_trial","345","","j","","","","","","","","","","null","blue_triangle","6","[""images/Blue_Triangle.png"",""images/Blue_Triangle.png"",""images/Blue_Triangle.png"",""images/Blue_Triangle.png"",""images/Blue_Triangle.png"",""images/Blue_Triangle.png"",""images/Blue_Triangle.png"",""images/Blue_Triangle.png"",""images/Blue_Triangle.png""]","true","[[51,23],[3,94],[12,179],[74,239],[159,245],[228,194],[249,111],[211,35],[133,0]]","false",""
"visual-search-circle","131","2.2.0","317963","78346","visual_search_trial","353","","f","","","","","","","","","","null","red_circle","6","[""images/Red_Triangle.png"",""images/Red_Circle.png"",""images/Red_Circle.png""]","true","[[140,0],[9,173],[224,200]]","true",""
"visual-search-circle","132","2.2.0","319910","78346","visual_search_trial","443","","j","","","","","","","","","","null","blue_triangle","6","[""images/Blue_Triangle.png"",""images/Blue_Triangle.png"",""images/Blue_Triangle.png"",""images/Blue_Triangle.png"",""images/Blue_Triangle.png"",""images/Blue_Triangle.png""]","true","[[228,194],[237,70],[133,0],[21,55],[12,179],[116,249]]","false",""
"visual-search-circle","133","2.2.0","322089","78346","visual_search_trial","669","","j","","","","","","","","","","null","red_blue_mix","6","[""images/Blue_Triangle.png"",""images/Blue_Triangle.png"",""images/Blue_Triangle.png"",""images/Blue_Circle.png"",""images/Blue_Circle.png"",""images/Blue_Circle.png"",""images/Blue_Circle.png"",""images/Red_Circle.png"",""images/Blue_Triangle.png""]","true","[[233,62],[167,7],[82,7],[16,62],[1,146],[44,220],[125,250],[205,220],[248,146]]","false",""
"visual-search-circle","134","2.2.0","324116","78346","visual_search_trial","514","","f","","","","","","","","","","null","blue_triangle","6","[""images/Red_Triangle.png"",""images/Blue_Triangle.png"",""images/Blue_Triangle.png"",""images/Blue_Triangle.png"",""images/Blue_Triangle.png"",""images/Blue_Triangle.png"",""images/Blue_Triangle.png"",""images/Blue_Triangle.png"",""images/Blue_Triangle.png""]","true","[[144,248],[219,207],[249,127],[222,46],[148,2],[64,15],[8,80],[6,165],[60,232]]","true",""
"visual-search-circle","135","2.2.0","326016","78346","visual_search_trial","396","","j","","","","","","","","","","null","red_blue_mix","6","[""images/Blue_Circle.png"",""images/Blue_Circle.png"",""images/Blue_Circle.png"",""images/Red_Circle.png"",""images/Red_Circle.png"",""images/Red_Circle.png""]","true","[[150,2],[32,41],[6,163],[99,247],[217,208],[243,86]]","false",""
"visual-search-circle","136","2.2.0","328291","78346","visual_search_trial","762","","j","","","","","","","","","","null","red_circle","6","[""images/Red_Circle.png"",""images/Red_Circle.png"",""images/Red_Circle.png""]","true","[[0,135],[196,227],[177,11]]","false",""
"visual-search-circle","137","2.2.0","330185","78346","visual_search_trial","390","","f","","","","","","","","","","null","red_blue_mix","6","[""images/Red_Triangle.png"",""images/Red_Circle.png"",""images/Red_Circle.png""]","true","[[64,15],[60,232],[249,127]]","true",""
"visual-search-circle","138","2.2.0","332092","78346","visual_search_trial","398","","f","","","","","","","","","","null","red_circle","6","[""images/Red_Triangle.png"",""images/Red_Circle.png"",""images/Red_Circle.png"",""images/Red_Circle.png"",""images/Red_Circle.png"",""images/Red_Circle.png""]","true","[[238,177],[227,53],[114,0],[11,72],[22,196],[135,249]]","true",""
"visual-search-circle","139","2.2.0","334113","78346","visual_search_trial","516","","f","","","","","","","","","","null","red_blue_mix","6","[""images/Red_Triangle.png"",""images/Blue_Circle.png"",""images/Blue_Triangle.png"",""images/Blue_Circle.png"",""images/Blue_Circle.png"",""images/Red_Circle.png""]","true","[[41,32],[2,150],[86,243],[208,217],[247,99],[163,6]]","true",""
"visual-search-circle","140","2.2.0","336057","78346","visual_search_trial","432","","f","","","","","","","","","","null","blue_triangle","6","[""images/Red_Triangle.png"",""images/Blue_Triangle.png"",""images/Blue_Triangle.png"",""images/Blue_Triangle.png"",""images/Blue_Triangle.png"",""images/Blue_Triangle.png""]","true","[[51,226],[175,239],[249,138],[198,23],[74,10],[0,111]]","true",""
"visual-search-circle","141","2.2.0","338046","78346","visual_search_trial","485","","f","","","","","","","","","","null","red_circle","6","[""images/Red_Triangle.png"",""images/Red_Circle.png"",""images/Red_Circle.png"",""images/Red_Circle.png"",""images/Red_Circle.png"",""images/Red_Circle.png"",""images/Red_Circle.png"",""images/Red_Circle.png"",""images/Red_Circle.png""]","true","[[99,2],[26,48],[0,129],[32,208],[107,248],[191,231],[243,163],[240,78],[183,14]]","true",""
"visual-search-circle","142","2.2.0","340016","78346","visual_search_trial","465","","j","","","","","","","","","","null","blue_triangle","6","[""images/Blue_Triangle.png"",""images/Blue_Triangle.png"",""images/Blue_Triangle.png""]","true","[[90,245],[246,94],[38,35]]","false",""
"visual-search-circle","143","2.2.0","341881","78346","visual_search_trial","350","","j","","","","","","","","","","null","red_circle","6","[""images/Red_Circle.png"",""images/Red_Circle.png"",""images/Red_Circle.png"",""images/Red_Circle.png"",""images/Red_Circle.png"",""images/Red_Circle.png"",""images/Red_Circle.png"",""images/Red_Circle.png"",""images/Red_Circle.png""]","true","[[250,125],[220,44],[146,1],[62,16],[7,82],[7,167],[62,233],[146,248],[220,205]]","false",""
"visual-search-circle","144","2.2.0","343820","78346","visual_search_trial","438","","f","","","","","","","","","","null","red_blue_mix","7","[""images/Red_Triangle.png"",""images/Blue_Triangle.png"",""images/Red_Circle.png"",""images/Blue_Triangle.png"",""images/Blue_Triangle.png"",""images/Blue_Triangle.png""]","true","[[74,10],[0,111],[51,226],[175,239],[249,138],[198,23]]","true",""
"visual-search-circle","145","2.2.0","345736","78346","visual_search_trial","404","","f","","","","","","","","","","null","red_circle","7","[""images/Red_Triangle.png"",""images/Red_Circle.png"",""images/Red_Circle.png"",""images/Red_Circle.png"",""images/Red_Circle.png"",""images/Red_Circle.png""]","true","[[0,135],[72,238],[196,227],[249,114],[177,11],[53,22]]","true",""
"visual-search-circle","146","2.2.0","347706","78346","visual_search_trial","469","","f","","","","","","","","","","null","blue_triangle","7","[""images/Red_Triangle.png"",""images/Blue_Triangle.png"",""images/Blue_Triangle.png""]","true","[[96,246],[244,88],[33,39]]","true",""
"visual-search-circle","147","2.2.0","349580","78346","visual_search_trial","364","","f","","","","","","","","","","null","red_blue_mix","7","[""images/Red_Triangle.png"",""images/Blue_Circle.png"",""images/Red_Circle.png""]","true","[[33,39],[96,246],[244,88]]","true",""
"visual-search-circle","148","2.2.0","351526","78346","visual_search_trial","434","","j","","","","","","","","","","null","red_circle","7","[""images/Red_Circle.png"",""images/Red_Circle.png"",""images/Red_Circle.png"",""images/Red_Circle.png"",""images/Red_Circle.png"",""images/Red_Circle.png"",""images/Red_Circle.png"",""images/Red_Circle.png"",""images/Red_Circle.png""]","true","[[179,237],[239,175],[245,90],[194,21],[111,0],[35,38],[0,116],[23,198],[94,246]]","false",""
"visual-search-circle","149","2.2.0","353736","78346","visual_search_trial","696","","j","","","","","","","","","","null","red_blue_mix","7","[""images/Blue_Triangle.png"",""images/Red_Circle.png"",""images/Blue_Circle.png"",""images/Blue_Circle.png"",""images/Blue_Triangle.png"",""images/Blue_Circle.png"",""images/Blue_Triangle.png"",""images/Red_Circle.png"",""images/Blue_Circle.png""]","true","[[205,220],[248,146],[233,62],[167,7],[82,7],[16,62],[1,146],[44,220],[124,250]]","false",""
"visual-search-circle","150","2.2.0","355847","78346","visual_search_trial","594","","j","","","","","","","","","","null","blue_triangle","7","[""images/Blue_Triangle.png"",""images/Blue_Triangle.png"",""images/Blue_Triangle.png""]","true","[[23,198],[239,175],[111,0]]","false",""
"visual-search-circle","151","2.2.0","357954","78346","visual_search_trial","604","","j","","","","","","","","","","null","red_circle","7","[""images/Red_Circle.png"",""images/Red_Circle.png"",""images/Red_Circle.png""]","true","[[194,228],[179,12],[0,133]]","false",""
"visual-search-circle","152","2.2.0","359964","78346","visual_search_trial","508","","f","","","","","","","","","","null","blue_triangle","7","[""images/Red_Triangle.png"",""images/Blue_Triangle.png"",""images/Blue_Triangle.png"",""images/Blue_Triangle.png"",""images/Blue_Triangle.png"",""images/Blue_Triangle.png"",""images/Blue_Triangle.png"",""images/Blue_Triangle.png"",""images/Blue_Triangle.png""]","true","[[58,231],[142,248],[217,208],[249,129],[223,48],[150,2],[66,14],[9,78],[6,163]]","true",""
"visual-search-circle","153","2.2.0","362055","78346","visual_search_trial","580","","j","","","","","","","","","","null","red_blue_mix","7","[""images/Blue_Circle.png"",""images/Blue_Triangle.png"",""images/Red_Circle.png"",""images/Blue_Triangle.png"",""images/Red_Circle.png"",""images/Red_Circle.png""]","true","[[58,18],[0,129],[66,235],[191,231],[249,120],[183,14]]","false",""
"visual-search-circle","154","2.2.0","363981","78346","visual_search_trial","419","","j","","","","","","","","","","null","red_circle","7","[""images/Red_Circle.png"",""images/Red_Circle.png"",""images/Red_Circle.png"",""images/Red_Circle.png"",""images/Red_Circle.png"",""images/Red_Circle.png""]","true","[[146,248],[242,167],[220,44],[103,1],[7,82],[29,205]]","false",""
"visual-search-circle","155","2.2.0","366382","78346","visual_search_trial","893","","f","","","","","","","","","","null","red_blue_mix","7","[""images/Red_Triangle.png"",""images/Blue_Triangle.png"",""images/Blue_Triangle.png"",""images/Blue_Circle.png"",""images/Red_Circle.png"",""images/Blue_Triangle.png"",""images/Red_Circle.png"",""images/Red_Circle.png"",""images/Red_Circle.png""]","true","[[165,243],[232,189],[248,105],[207,30],[127,0],[46,27],[2,101],[15,185],[80,241]]","true",""
"visual-search-circle","156","2.2.0","368300","78346","visual_search_trial","414","","j","","","","","","","","","","null","blue_triangle","7","[""images/Blue_Triangle.png"",""images/Blue_Triangle.png"",""images/Blue_Triangle.png"",""images/Blue_Triangle.png"",""images/Blue_Triangle.png"",""images/Blue_Triangle.png"",""images/Blue_Triangle.png"",""images/Blue_Triangle.png"",""images/Blue_Triangle.png""]","true","[[249,131],[224,49],[153,3],[68,13],[9,76],[5,161],[56,229],[140,249],[216,210]]","false",""
"visual-search-circle","157","2.2.0","370391","78346","visual_search_trial","584","","f","","","","","","","","","","null","red_circle","7","[""images/Red_Triangle.png"",""images/Red_Circle.png"",""images/Red_Circle.png"",""images/Red_Circle.png"",""images/Red_Circle.png"",""images/Red_Circle.png"",""images/Red_Circle.png"",""images/Red_Circle.png"",""images/Red_Circle.png""]","true","[[90,245],[175,239],[237,179],[246,94],[198,23],[116,0],[38,35],[0,111],[21,194]]","true",""
"visual-search-circle","158","2.2.0","372305","78346","visual_search_trial","401","","f","","","","","","","","","","null","blue_triangle","7","[""images/Red_Triangle.png"",""images/Blue_Triangle.png"",""images/Blue_Triangle.png"",""images/Blue_Triangle.png"",""images/Blue_Triangle.png"",""images/Blue_Triangle.png""]","true","[[242,82],[146,1],[29,44],[7,167],[103,248],[220,205]]","true",""
"visual-search-circle","159","2.2.0","374301","78346","visual_search_trial","480","","f","","","","","","","","","","null","red_circle","7","[""images/Red_Triangle.png"",""images/Red_Circle.png"",""images/Red_Circle.png""]","true","[[74,10],[51,226],[249,138]]","true",""
"visual-search-circle","160","2.2.0","376205","78346","visual_search_trial","397","","j","","","","","","","","","","null","red_blue_mix","7","[""images/Red_Circle.png"",""images/Blue_Circle.png"",""images/Red_Circle.png""]","true","[[13,68],[131,249],[229,56]]","false",""
"visual-search-circle","161","2.2.0","378221","78346","visual_search_trial","506","","j","","","","","","","","","","null","blue_triangle","7","[""images/Blue_Triangle.png"",""images/Blue_Triangle.png"",""images/Blue_Triangle.png"",""images/Blue_Triangle.png"",""images/Blue_Triangle.png"",""images/Blue_Triangle.png""]","true","[[135,0],[22,53],[11,177],[114,249],[227,196],[238,72]]","false",""
"html-keyboard-response","162","2.1.0","383198","78346","break","4977","<p>Great job so far! Please rest for a few seconds before continuing.</p>
                 <p>Press the <strong>E</strong> key on your keyboard to continue.</p>","e","","","","","","","","","","","","","","","","","E"
"visual-search-circle","163","2.2.0","385430","78346","visual_search_trial","720","","f","","","","","","","","","","null","red_blue_mix","8","[""images/Red_Triangle.png"",""images/Blue_Triangle.png"",""images/Blue_Triangle.png"",""images/Blue_Triangle.png"",""images/Blue_Circle.png"",""images/Red_Circle.png"",""images/Blue_Triangle.png"",""images/Blue_Circle.png"",""images/Blue_Circle.png""]","true","[[165,243],[232,189],[248,105],[207,30],[127,0],[46,27],[2,101],[15,185],[80,241]]","true",""
"visual-search-circle","164","2.2.0","387258","78346","visual_search_trial","315","","j","","","","","","","","","","null","blue_triangle","8","[""images/Blue_Triangle.png"",""images/Blue_Triangle.png"",""images/Blue_Triangle.png"",""images/Blue_Triangle.png"",""images/Blue_Triangle.png"",""images/Blue_Triangle.png"",""images/Blue_Triangle.png"",""images/Blue_Triangle.png"",""images/Blue_Triangle.png""]","true","[[6,84],[8,169],[64,234],[148,247],[222,203],[249,122],[219,42],[144,1],[60,17]]","false",""
"visual-search-circle","165","2.2.0","389411","78346","visual_search_trial","648","","j","","","","","","","","","","null","red_circle","8","[""images/Red_Circle.png"",""images/Red_Circle.png"",""images/Red_Circle.png"",""images/Red_Circle.png"",""images/Red_Circle.png"",""images/Red_Circle.png""]","true","[[8,169],[105,248],[222,203],[241,80],[144,1],[27,46]]","false",""
"visual-search-circle","166","2.2.0","391308","78346","visual_search_trial","394","","f","","","","","","","","","","null","blue_triangle","8","[""images/Red_Triangle.png"",""images/Blue_Triangle.png"",""images/Blue_Triangle.png"",""images/Blue_Triangle.png"",""images/Blue_Triangle.png"",""images/Blue_Triangle.png""]","true","[[88,244],[210,216],[246,96],[161,5],[39,33],[3,153]]","true",""
"visual-search-circle","167","2.2.0","393170","78346","visual_search_trial","355","","j","","","","","","","","","","null","red_blue_mix","8","[""images/Blue_Circle.png"",""images/Blue_Triangle.png"",""images/Blue_Circle.png""]","true","[[243,163],[99,2],[32,208]]","false",""
"visual-search-circle","168","2.2.0","395074","78346","visual_search_trial","400","","f","","","","","","","","","","null","blue_triangle","8","[""images/Red_Triangle.png"",""images/Blue_Triangle.png"",""images/Blue_Triangle.png""]","true","[[70,12],[55,228],[249,133]]","true",""
"visual-search-circle","169","2.2.0","396996","78346","visual_search_trial","420","","f","","","","","","","","","","null","red_circle","8","[""images/Red_Triangle.png"",""images/Red_Circle.png"",""images/Red_Circle.png"",""images/Red_Circle.png"",""images/Red_Circle.png"",""images/Red_Circle.png""]","true","[[155,246],[245,159],[214,38],[94,3],[4,90],[35,211]]","true",""
"visual-search-circle","170","2.2.0","398915","78346","visual_search_trial","402","","j","","","","","","","","","","null","red_blue_mix","8","[""images/Blue_Circle.png"",""images/Red_Circle.png"",""images/Blue_Circle.png"",""images/Red_Circle.png"",""images/Blue_Circle.png"",""images/Red_Circle.png""]","true","[[135,249],[238,177],[227,53],[114,0],[11,72],[22,196]]","false",""
"visual-search-circle","171","2.2.0","400757","78346","visual_search_trial","340","","j","","","","","","","","","","null","red_circle","8","[""images/Red_Circle.png"",""images/Red_Circle.png"",""images/Red_Circle.png"",""images/Red_Circle.png"",""images/Red_Circle.png"",""images/Red_Circle.png"",""images/Red_Circle.png"",""images/Red_Circle.png"",""images/Red_Circle.png""]","true","[[49,25],[3,96],[13,181],[76,240],[161,244],[229,193],[249,109],[210,33],[131,0]]","false",""
"visual-search-circle","172","2.2.0","402784","78346","visual_search_trial","516","","j","","","","","","","","","","null","red_blue_mix","8","[""images/Blue_Triangle.png"",""images/Red_Circle.png"",""images/Blue_Circle.png"",""images/Blue_Triangle.png"",""images/Blue_Triangle.png"",""images/Blue_Circle.png"",""images/Blue_Circle.png"",""images/Blue_Circle.png"",""images/Blue_Circle.png""]","true","[[15,185],[80,241],[165,243],[232,189],[248,105],[207,30],[127,0],[46,27],[2,101]]","false",""
"visual-search-circle","173","2.2.0","404773","78346","visual_search_trial","487","","f","","","","","","","","","","null","blue_triangle","8","[""images/Red_Triangle.png"",""images/Blue_Triangle.png"",""images/Blue_Triangle.png"",""images/Blue_Triangle.png"",""images/Blue_Triangle.png"",""images/Blue_Triangle.png"",""images/Blue_Triangle.png"",""images/Blue_Triangle.png"",""images/Blue_Triangle.png""]","true","[[249,120],[217,41],[142,1],[58,18],[6,86],[9,171],[66,235],[150,247],[223,201]]","true",""
"visual-search-circle","174","2.2.0","406699","78346","visual_search_trial","410","","j","","","","","","","","","","null","red_circle","8","[""images/Red_Circle.png"",""images/Red_Circle.png"",""images/Red_Circle.png""]","true","[[207,219],[165,6],[2,148]]","false",""
"visual-search-circle","175","2.2.0","408537","78346","visual_search_trial","329","","f","","","","","","","","","","null","red_blue_mix","8","[""images/Red_Triangle.png"",""images/Red_Circle.png"",""images/Red_Circle.png""]","true","[[167,7],[1,146],[205,220]]","true",""
"visual-search-circle","176","2.2.0","410380","78346","visual_search_trial","341","","j","","","","","","","","","","null","blue_triangle","8","[""images/Blue_Triangle.png"",""images/Blue_Triangle.png"",""images/Blue_Triangle.png"",""images/Blue_Triangle.png"",""images/Blue_Triangle.png"",""images/Blue_Triangle.png""]","true","[[232,60],[122,0],[15,64],[17,189],[127,249],[234,185]]","false",""
"visual-search-circle","177","2.2.0","412322","78346","visual_search_trial","426","","f","","","","","","","","","","null","red_circle","8","[""images/Red_Triangle.png"",""images/Red_Circle.png"",""images/Red_Circle.png"",""images/Red_Circle.png"",""images/Red_Circle.png"",""images/Red_Circle.png"",""images/Red_Circle.png"",""images/Red_Circle.png"",""images/Red_Circle.png""]","true","[[23,198],[94,246],[179,237],[239,175],[245,90],[194,21],[111,0],[35,38],[0,116]]","true",""
"visual-search-circle","178","2.2.0","414173","78346","visual_search_trial","341","","j","","","","","","","","","","null","blue_triangle","8","[""images/Blue_Triangle.png"",""images/Blue_Triangle.png"",""images/Blue_Triangle.png""]","true","[[122,249],[234,64],[17,60]]","false",""
"visual-search-circle","179","2.2.0","416234","78346","visual_search_trial","558","","f","","","","","","","","","","null","red_circle","8","[""images/Red_Triangle.png"",""images/Red_Circle.png"",""images/Red_Circle.png""]","true","[[101,247],[243,84],[30,42]]","true",""
"visual-search-circle","180","2.2.0","418216","78346","visual_search_trial","469","","f","","","","","","","","","","null","red_blue_mix","8","[""images/Red_Triangle.png"",""images/Red_Circle.png"",""images/Blue_Circle.png"",""images/Red_Circle.png"",""images/Red_Circle.png"",""images/Blue_Circle.png""]","true","[[64,15],[0,122],[60,232],[185,234],[249,127],[189,17]]","true",""
"visual-search-circle","181","2.2.0","420204","78346","visual_search_trial","473","","j","","","","","","","","","","null","red_blue_mix","9","[""images/Red_Circle.png"",""images/Red_Circle.png"",""images/Red_Circle.png""]","true","[[12,179],[228,194],[133,0]]","false",""
"visual-search-circle","182","2.2.0","422140","78346","visual_search_trial","425","","j","","","","","","","","","","null","red_circle","9","[""images/Red_Circle.png"",""images/Red_Circle.png"",""images/Red_Circle.png""]","true","[[138,0],[10,175],[226,198]]","false",""
"visual-search-circle","183","2.2.0","424095","78346","visual_search_trial","446","","j","","","","","","","","","","null","red_blue_mix","9","[""images/Red_Circle.png"",""images/Blue_Circle.png"",""images/Red_Circle.png"",""images/Blue_Circle.png"",""images/Red_Circle.png"",""images/Blue_Circle.png""]","true","[[224,200],[240,76],[140,0],[25,49],[9,173],[109,249]]","false",""
"visual-search-circle","184","2.2.0","426059","78346","visual_search_trial","461","","f","","","","","","","","","","null","blue_triangle","9","[""images/Red_Triangle.png"",""images/Blue_Triangle.png"",""images/Blue_Triangle.png""]","true","[[187,233],[187,16],[0,124]]","true",""
"visual-search-circle","185","2.2.0","428020","78346","visual_search_trial","455","","j","","","","","","","","","","null","red_circle","9","[""images/Red_Circle.png"",""images/Red_Circle.png"",""images/Red_Circle.png"",""images/Red_Circle.png"",""images/Red_Circle.png"",""images/Red_Circle.png""]","true","[[114,0],[11,72],[22,196],[135,249],[238,177],[227,53]]","false",""
"visual-search-circle","186","2.2.0","429955","78346","visual_search_trial","423","","j","","","","","","","","","","null","blue_triangle","9","[""images/Blue_Triangle.png"",""images/Blue_Triangle.png"",""images/Blue_Triangle.png"",""images/Blue_Triangle.png"",""images/Blue_Triangle.png"",""images/Blue_Triangle.png"",""images/Blue_Triangle.png"",""images/Blue_Triangle.png"",""images/Blue_Triangle.png""]","true","[[32,41],[0,120],[26,201],[99,247],[183,235],[240,171],[243,86],[191,18],[107,1]]","false",""
"visual-search-circle","187","2.2.0","431943","78346","visual_search_trial","476","","f","","","","","","","","","","null","red_blue_mix","9","[""images/Red_Triangle.png"",""images/Blue_Triangle.png"",""images/Blue_Triangle.png"",""images/Blue_Circle.png"",""images/Blue_Circle.png"",""images/Blue_Triangle.png""]","true","[[90,4],[3,94],[38,214],[159,245],[246,155],[211,35]]","true",""
"visual-search-circle","188","2.2.0","433907","78346","visual_search_trial","455","","f","","","","","","","","","","null","red_circle","9","[""images/Red_Triangle.png"",""images/Red_Circle.png"",""images/Red_Circle.png"",""images/Red_Circle.png"",""images/Red_Circle.png"",""images/Red_Circle.png"",""images/Red_Circle.png"",""images/Red_Circle.png"",""images/Red_Circle.png""]","true","[[4,92],[11,177],[72,238],[157,245],[227,196],[249,114],[213,36],[135,0],[53,22]]","true",""
"visual-search-circle","189","2.2.0","435981","78346","visual_search_trial","565","","f","","","","","","","","","","null","red_blue_mix","9","[""images/Red_Triangle.png"",""images/Blue_Circle.png"",""images/Red_Circle.png"",""images/Red_Circle.png"",""images/Blue_Circle.png"",""images/Red_Circle.png"",""images/Red_Circle.png"",""images/Blue_Triangle.png"",""images/Blue_Triangle.png""]","true","[[198,226],[246,155],[237,70],[175,10],[90,4],[21,55],[0,138],[38,214],[116,249]]","true",""
"visual-search-circle","190","2.2.0","437932","78346","visual_search_trial","444","","f","","","","","","","","","","null","blue_triangle","9","[""images/Red_Triangle.png"",""images/Blue_Triangle.png"",""images/Blue_Triangle.png"",""images/Blue_Triangle.png"",""images/Blue_Triangle.png"",""images/Blue_Triangle.png"",""images/Blue_Triangle.png"",""images/Blue_Triangle.png"",""images/Blue_Triangle.png""]","true","[[3,153],[49,224],[131,249],[210,216],[249,140],[229,56],[161,5],[76,9],[13,68]]","true",""
"visual-search-circle","191","2.2.0","439827","78346","visual_search_trial","388","","f","","","","","","","","","","null","red_circle","9","[""images/Red_Triangle.png"",""images/Red_Circle.png"",""images/Red_Circle.png"",""images/Red_Circle.png"",""images/Red_Circle.png"",""images/Red_Circle.png""]","true","[[22,53],[11,177],[114,249],[227,196],[238,72],[135,0]]","true",""
"visual-search-circle","192","2.2.0","441904","78346","visual_search_trial","561","","j","","","","","","","","","","null","red_blue_mix","9","[""images/Blue_Circle.png"",""images/Red_Circle.png"",""images/Blue_Circle.png"",""images/Red_Circle.png"",""images/Red_Circle.png"",""images/Red_Circle.png"",""images/Blue_Circle.png"",""images/Blue_Triangle.png"",""images/Blue_Triangle.png""]","true","[[213,213],[249,135],[227,53],[157,4],[72,11],[11,72],[4,157],[53,227],[135,249]]","false",""
"visual-search-circle","193","2.2.0","443836","78346","visual_search_trial","429","","j","","","","","","","","","","null","blue_triangle","9","[""images/Blue_Triangle.png"",""images/Blue_Triangle.png"",""images/Blue_Triangle.png""]","true","[[249,118],[56,20],[68,236]]","false",""
"visual-search-circle","194","2.2.0","445752","78346","visual_search_trial","406","","f","","","","","","","","","","null","red_circle","9","[""images/Red_Triangle.png"",""images/Red_Circle.png"",""images/Red_Circle.png""]","true","[[16,187],[233,187],[125,0]]","true",""
"visual-search-circle","195","2.2.0","447644","78346","visual_search_trial","391","","j","","","","","","","","","","null","blue_triangle","9","[""images/Red_Triangle.png"",""images/Blue_Triangle.png"",""images/Blue_Triangle.png"",""images/Blue_Triangle.png"",""images/Blue_Triangle.png"",""images/Blue_Triangle.png""]","false","[[189,232],[249,122],[185,15],[60,17],[0,127],[64,234]]","true",""
"visual-search-circle","196","2.2.0","449674","78346","visual_search_trial","525","","j","","","","","","","","","","null","red_circle","9","[""images/Red_Circle.png"",""images/Red_Circle.png"",""images/Red_Circle.png"",""images/Red_Circle.png"",""images/Red_Circle.png"",""images/Red_Circle.png"",""images/Red_Circle.png"",""images/Red_Circle.png"",""images/Red_Circle.png""]","true","[[138,249],[214,211],[249,133],[226,51],[155,3],[70,12],[10,74],[4,159],[55,228]]","false",""
"visual-search-circle","197","2.2.0","451578","78346","visual_search_trial","393","","j","","","","","","","","","","null","blue_triangle","9","[""images/Blue_Triangle.png"",""images/Blue_Triangle.png"",""images/Blue_Triangle.png"",""images/Blue_Triangle.png"",""images/Blue_Triangle.png"",""images/Blue_Triangle.png""]","true","[[216,39],[96,3],[5,88],[33,210],[153,246],[244,161]]","false",""
"visual-search-circle","198","2.2.0","453532","78346","visual_search_trial","442","","f","","","","","","","","","","null","red_blue_mix","9","[""images/Red_Triangle.png"",""images/Blue_Triangle.png"",""images/Red_Circle.png""]","true","[[133,0],[12,179],[228,194]]","true",""
"html-keyboard-response","199","2.1.0","625966","78346","break","172447","<p>Great job so far! Please rest for a few seconds before continuing.</p>
                 <p>Press the <strong>R</strong> key on your keyboard to continue.</p>","r","","","","","","","","","","","","","","","","","R"
"visual-search-circle","200","2.2.0","628692","78346","visual_search_trial","1219","","j","","","","","","","","","","null","red_blue_mix","10","[""images/Red_Circle.png"",""images/Blue_Triangle.png"",""images/Blue_Triangle.png""]","true","[[99,2],[32,208],[243,163]]","false",""
"visual-search-circle","201","2.2.0","630891","78346","visual_search_trial","684","","f","","","","","","","","","","null","red_circle","10","[""images/Red_Triangle.png"",""images/Red_Circle.png"",""images/Red_Circle.png"",""images/Red_Circle.png"",""images/Red_Circle.png"",""images/Red_Circle.png""]","true","[[249,109],[173,9],[49,25],[0,140],[76,240],[200,224]]","true",""
"visual-search-circle","202","2.2.0","632761","78346","visual_search_trial","366","","f","","","","","","","","","","null","blue_triangle","10","[""images/Red_Triangle.png"",""images/Blue_Triangle.png"",""images/Blue_Triangle.png"",""images/Blue_Triangle.png"",""images/Blue_Triangle.png"",""images/Blue_Triangle.png"",""images/Blue_Triangle.png"",""images/Blue_Triangle.png"",""images/Blue_Triangle.png""]","true","[[6,84],[8,169],[64,234],[148,247],[222,203],[249,122],[219,42],[144,1],[60,17]]","true",""
"visual-search-circle","203","2.2.0","634774","78346","visual_search_trial","505","","j","","","","","","","","","","null","red_blue_mix","10","[""images/Blue_Triangle.png"",""images/Red_Circle.png"",""images/Red_Circle.png"",""images/Blue_Circle.png"",""images/Blue_Circle.png"",""images/Blue_Triangle.png"",""images/Blue_Triangle.png"",""images/Red_Circle.png"",""images/Blue_Triangle.png""]","true","[[105,248],[189,232],[243,165],[241,80],[185,15],[101,2],[27,46],[0,127],[30,207]]","false",""
"visual-search-circle","204","2.2.0","636669","78346","visual_search_trial","385","","f","","","","","","","","","","null","red_circle","10","[""images/Red_Triangle.png"",""images/Red_Circle.png"",""images/Red_Circle.png"",""images/Red_Circle.png"",""images/Red_Circle.png"",""images/Red_Circle.png"",""images/Red_Circle.png"",""images/Red_Circle.png"",""images/Red_Circle.png""]","true","[[138,0],[55,21],[4,90],[10,175],[70,237],[155,246],[226,198],[249,116],[214,38]]","true",""
"visual-search-circle","205","2.2.0","638620","78346","visual_search_trial","438","","j","","","","","","","","","","null","blue_triangle","10","[""images/Blue_Triangle.png"",""images/Blue_Triangle.png"",""images/Blue_Triangle.png"",""images/Blue_Triangle.png"",""images/Blue_Triangle.png"",""images/Blue_Triangle.png""]","true","[[0,122],[60,232],[185,234],[249,127],[189,17],[64,15]]","false",""
"visual-search-circle","206","2.2.0","640589","78346","visual_search_trial","459","","j","","","","","","","","","","null","red_circle","10","[""images/Red_Circle.png"",""images/Red_Circle.png"",""images/Red_Circle.png""]","true","[[211,214],[159,4],[3,155]]","false",""
"visual-search-circle","207","2.2.0","643046","78346","visual_search_trial","949","","f","","","","","","","","","","null","red_blue_mix","10","[""images/Red_Triangle.png"",""images/Blue_Triangle.png"",""images/Blue_Triangle.png"",""images/Red_Circle.png"",""images/Red_Circle.png"",""images/Red_Circle.png"",""images/Blue_Circle.png"",""images/Blue_Triangle.png"",""images/Red_Circle.png""]","true","[[39,33],[0,109],[20,193],[88,244],[173,240],[236,181],[246,96],[200,25],[118,0]]","true",""
"visual-search-circle","208","2.2.0","645123","78346","visual_search_trial","561","","f","","","","","","","","","","null","blue_triangle","10","[""images/Red_Triangle.png"",""images/Blue_Triangle.png"",""images/Blue_Triangle.png""]","true","[[161,5],[3,153],[210,216]]","true",""
"visual-search-circle","209","2.2.0","647009","78346","visual_search_trial","383","","f","","","","","","","","","","null","red_blue_mix","10","[""images/Red_Triangle.png"",""images/Blue_Triangle.png"",""images/Blue_Circle.png"",""images/Blue_Circle.png"",""images/Red_Circle.png"",""images/Red_Circle.png""]","true","[[246,94],[159,4],[38,35],[3,155],[90,245],[211,214]]","true",""
"visual-search-circle","210","2.2.0","648841","78346","visual_search_trial","322","","j","","","","","","","","","","null","red_circle","10","[""images/Red_Circle.png"",""images/Red_Circle.png"",""images/Red_Circle.png"",""images/Red_Circle.png"",""images/Red_Circle.png"",""images/Red_Circle.png"",""images/Red_Circle.png"",""images/Red_Circle.png"",""images/Red_Circle.png""]","true","[[12,70],[3,155],[51,226],[133,249],[211,214],[249,138],[228,55],[159,4],[74,10]]","false",""
"visual-search-circle","211","2.2.0","650701","78346","visual_search_trial","357","","f","","","","","","","","","","null","blue_triangle","10","[""images/Red_Triangle.png"",""images/Blue_Triangle.png"",""images/Blue_Triangle.png"",""images/Blue_Triangle.png"",""images/Blue_Triangle.png"",""images/Blue_Triangle.png""]","true","[[4,92],[36,213],[157,245],[245,157],[213,36],[92,4]]","true",""
"visual-search-circle","212","2.2.0","652642","78346","visual_search_trial","440","","j","","","","","","","","","","null","red_circle","10","[""images/Red_Circle.png"",""images/Red_Circle.png"",""images/Red_Circle.png"",""images/Red_Circle.png"",""images/Red_Circle.png"",""images/Red_Circle.png""]","true","[[146,1],[29,44],[7,167],[103,248],[220,205],[242,82]]","false",""
"visual-search-circle","213","2.2.0","654745","78346","visual_search_trial","592","","j","","","","","","","","","","null","blue_triangle","10","[""images/Blue_Triangle.png"",""images/Blue_Triangle.png"",""images/Blue_Triangle.png""]","true","[[7,167],[220,205],[146,1]]","false",""
"visual-search-circle","214","2.2.0","656849","78346","visual_search_trial","592","","f","","","","","","","","","","null","red_circle","10","[""images/Red_Triangle.png"",""images/Red_Circle.png"",""images/Red_Circle.png""]","true","[[78,9],[48,223],[248,142]]","true",""
"visual-search-circle","215","2.2.0","658953","78346","visual_search_trial","603","","f","","","","","","","","","","null","red_blue_mix","10","[""images/Red_Triangle.png"",""images/Blue_Circle.png"",""images/Blue_Circle.png""]","true","[[167,242],[205,29],[1,103]]","true",""
"visual-search-circle","216","2.2.0","661181","78346","visual_search_trial","727","","j","","","","","","","","","","null","blue_triangle","10","[""images/Blue_Triangle.png"",""images/Blue_Triangle.png"",""images/Blue_Triangle.png"",""images/Blue_Triangle.png"",""images/Blue_Triangle.png"",""images/Blue_Triangle.png"",""images/Blue_Triangle.png"",""images/Blue_Triangle.png"",""images/Blue_Triangle.png""]","true","[[203,222],[247,148],[234,64],[169,8],[84,6],[17,60],[1,144],[42,219],[122,249]]","false",""
"visual-search-circle","217","2.2.0","663233","78346","visual_search_trial","550","","j","","","","","","","","","","null","red_blue_mix","10","[""images/Blue_Circle.png"",""images/Blue_Circle.png"",""images/Red_Circle.png"",""images/Blue_Triangle.png"",""images/Red_Circle.png"",""images/Blue_Triangle.png""]","true","[[74,10],[0,111],[51,226],[175,239],[249,138],[198,23]]","false",""
"visual-search-circle","218","2.2.0","665127","78346","visual_search_trial","386","","j","","","","","","","","","","null","red_circle","11","[""images/Red_Circle.png"",""images/Red_Circle.png"",""images/Red_Circle.png""]","true","[[208,32],[2,99],[163,243]]","false",""
"visual-search-circle","219","2.2.0","667065","78346","visual_search_trial","435","","j","","","","","","","","","","null","blue_triangle","11","[""images/Blue_Triangle.png"",""images/Blue_Triangle.png"",""images/Blue_Triangle.png"",""images/Blue_Triangle.png"",""images/Blue_Triangle.png"",""images/Blue_Triangle.png""]","true","[[242,82],[146,1],[29,44],[7,167],[103,248],[220,205]]","false",""
"visual-search-circle","220","2.2.0","668953","78346","visual_search_trial","374","","f","","","","","","","","","","null","red_blue_mix","11","[""images/Blue_Circle.png"",""images/Blue_Triangle.png"",""images/Red_Circle.png"",""images/Red_Circle.png"",""images/Blue_Triangle.png"",""images/Red_Circle.png"",""images/Blue_Circle.png"",""images/Blue_Circle.png"",""images/Blue_Circle.png""]","false","[[150,247],[223,201],[249,120],[217,41],[142,1],[58,18],[6,86],[9,171],[66,235]]","false",""
"visual-search-circle","221","2.2.0","670927","78346","visual_search_trial","471","","f","","","","","","","","","","null","blue_triangle","11","[""images/Red_Triangle.png"",""images/Blue_Triangle.png"",""images/Blue_Triangle.png""]","true","[[42,219],[247,148],[84,6]]","true",""
"visual-search-circle","222","2.2.0","672888","78346","visual_search_trial","455","","j","","","","","","","","","","null","red_blue_mix","11","[""images/Blue_Circle.png"",""images/Red_Circle.png"",""images/Red_Circle.png"",""images/Blue_Circle.png"",""images/Red_Circle.png"",""images/Blue_Triangle.png""]","true","[[248,103],[167,7],[44,29],[1,146],[82,242],[205,220]]","false",""
"visual-search-circle","223","2.2.0","674810","78346","visual_search_trial","410","","j","","","","","","","","","","null","blue_triangle","11","[""images/Blue_Triangle.png"",""images/Blue_Triangle.png"",""images/Blue_Triangle.png"",""images/Blue_Triangle.png"",""images/Blue_Triangle.png"",""images/Blue_Triangle.png"",""images/Blue_Triangle.png"",""images/Blue_Triangle.png"",""images/Blue_Triangle.png""]","true","[[231,58],[163,6],[78,9],[14,66],[2,150],[48,223],[129,249],[208,217],[248,142]]","false",""
"visual-search-circle","224","2.2.0","676726","78346","visual_search_trial","406","","j","","","","","","","","","","null","red_circle","11","[""images/Red_Circle.png"",""images/Red_Circle.png"",""images/Red_Circle.png"",""images/Red_Circle.png"",""images/Red_Circle.png"",""images/Red_Circle.png"",""images/Red_Circle.png"",""images/Red_Circle.png"",""images/Red_Circle.png""]","true","[[32,41],[0,120],[26,201],[99,247],[183,235],[240,171],[243,86],[191,18],[107,1]]","false",""
"visual-search-circle","225","2.2.0","678694","78346","visual_search_trial","458","","f","","","","","","","","","","null","red_blue_mix","11","[""images/Red_Triangle.png"",""images/Blue_Circle.png"",""images/Blue_Circle.png"",""images/Blue_Triangle.png"",""images/Blue_Triangle.png"",""images/Blue_Triangle.png"",""images/Blue_Triangle.png"",""images/Red_Circle.png"",""images/Blue_Triangle.png""]","true","[[96,246],[181,236],[240,173],[244,88],[193,20],[109,0],[33,39],[0,118],[25,200]]","true",""
"visual-search-circle","226","2.2.0","680883","78346","visual_search_trial","684","","f","","","","","","","","","","null","red_circle","11","[""images/Red_Triangle.png"",""images/Red_Circle.png"",""images/Red_Circle.png"",""images/Red_Circle.png"",""images/Red_Circle.png"",""images/Red_Circle.png""]","true","[[234,64],[127,0],[17,60],[15,185],[122,249],[232,189]]","true",""
"visual-search-circle","227","2.2.0","682916","78346","visual_search_trial","519","","f","","","","","","","","","","null","blue_triangle","11","[""images/Red_Triangle.png"",""images/Blue_Triangle.png"",""images/Blue_Triangle.png"",""images/Blue_Triangle.png"",""images/Blue_Triangle.png"",""images/Blue_Triangle.png"",""images/Blue_Triangle.png"",""images/Blue_Triangle.png"",""images/Blue_Triangle.png""]","true","[[26,48],[0,129],[32,208],[107,248],[191,231],[243,163],[240,78],[183,14],[99,2]]","true",""
"visual-search-circle","228","2.2.0","684834","78346","visual_search_trial","406","","f","","","","","","","","","","null","red_blue_mix","11","[""images/Red_Triangle.png"",""images/Blue_Circle.png"",""images/Red_Circle.png"",""images/Blue_Triangle.png"",""images/Blue_Circle.png"",""images/Blue_Circle.png""]","true","[[49,25],[0,140],[76,240],[200,224],[249,109],[173,9]]","true",""
"visual-search-circle","229","2.2.0","686847","78346","visual_search_trial","505","","j","","","","","","","","","","null","red_circle","11","[""images/Red_Circle.png"",""images/Red_Circle.png"",""images/Red_Circle.png"",""images/Red_Circle.png"",""images/Red_Circle.png"",""images/Red_Circle.png""]","true","[[92,245],[213,213],[245,92],[157,4],[36,36],[4,157]]","false",""
"visual-search-circle","230","2.2.0","688705","78346","visual_search_trial","348","","f","","","","","","","","","","null","red_blue_mix","11","[""images/Red_Triangle.png"",""images/Blue_Triangle.png"",""images/Red_Circle.png""]","true","[[32,41],[99,247],[243,86]]","true",""
"visual-search-circle","231","2.2.0","690649","78346","visual_search_trial","430","","f","","","","","","","","","","null","red_circle","11","[""images/Red_Triangle.png"",""images/Red_Circle.png"",""images/Red_Circle.png""]","true","[[33,210],[244,161],[96,3]]","true",""
"visual-search-circle","232","2.2.0","692499","78346","visual_search_trial","338","","f","","","","","","","","","","null","blue_triangle","11","[""images/Red_Triangle.png"",""images/Blue_Triangle.png"",""images/Blue_Triangle.png"",""images/Blue_Triangle.png"",""images/Blue_Triangle.png"",""images/Blue_Triangle.png""]","true","[[15,64],[17,189],[127,249],[234,185],[232,60],[122,0]]","true",""
"visual-search-circle","233","2.2.0","694513","78346","visual_search_trial","508","","j","","","","","","","","","","null","red_blue_mix","11","[""images/Blue_Triangle.png"",""images/Red_Circle.png"",""images/Red_Circle.png""]","true","[[125,0],[16,187],[233,187]]","false",""
"visual-search-circle","234","2.2.0","696420","78346","visual_search_trial","401","","j","","","","","","","","","","null","blue_triangle","11","[""images/Blue_Triangle.png"",""images/Blue_Triangle.png"",""images/Blue_Triangle.png""]","true","[[249,127],[64,15],[60,232]]","false",""
