"trial_type","trial_index","plugin_version","time_elapsed","sona_id","phase","rt","stimulus","response","consented","required_key","view_history","question_order","success","timeout","failed_images","failed_audio","failed_video","set_size","distractor_type","block","stimuli_list","correct","locations","target_present","break_key"
"pavlovia","0","null","1237","78679","","","","","","","","","","","","","","","","","","","","",""
"html-button-response","1","2.1.0","10797","78679","informed_consent","9557","
    <div style=""max-width: 900px; margin: 0 auto; padding: 20px; text-align: left; line-height: 1.6;"">
      <h1 style=""text-align: center; color: #333; font-size: 24px; margin-bottom: 10px; font-weight: bold;"">
        INFORMED CONSENT INFORMATION
      </h1>
      <h2 style=""text-align: center; color: #333; font-size: 22px; margin-bottom: 20px; font-weight: bold;"">
        FOR RESEARCH PARTICIPATION
      </h2>
      
      <p style=""margin-bottom: 10px;""><strong>Study Title:</strong> The Effects of Mindfulness and Attention on Life Satisfaction and Memory</p>
      <p style=""margin-bottom: 10px;""><strong>Principal Investigator:</strong> Ella Bremmer</p>
      <p style=""margin-bottom: 10px;""><strong>Co-Principal Investigator:</strong> Dr. Gregory Cox</p>
      <p style=""margin-bottom: 20px;""><strong>IRB Study Number:</strong></p>

      <p style=""margin-bottom: 15px;"">I am a student at the University at Albany, in the Department of Psychology. I am planning to conduct a research study, which I invite you to take part in.</p>
      
      <p style=""margin-bottom: 25px;"">This form has important information about the reasons for doing this study, what we will ask you to do, and the way we would like to use the information we collect about you.</p>

      <h3 style=""color: #333; font-size: 18px; margin-top: 25px; margin-bottom: 10px; font-weight: bold;"">
        Why are you doing this study?
      </h3>
      <p style=""margin-bottom: 15px;"">You are being asked to participate in a research study that aims to understand if there is a relationship between mindfulness, the ability to pay attention, and life satisfaction.</p>
      
      <p style=""margin-bottom: 25px;"">The purpose of this study is to investigate if having better control over one's attention influences overall life satisfaction. Your participation will help us better understand if mindfulness and attention do have a significant effect on life satisfaction (i.e., how people feel about their lives overall). Then you will be asked to perform a conjunction visual search task to test your capacity to direct your attention over a sustained period.</p>

      <h3 style=""color: #333; font-size: 18px; margin-top: 25px; margin-bottom: 10px; font-weight: bold;"">
        Why am I eligible to participate in this study?
      </h3>
      <p style=""margin-bottom: 25px;"">You are eligible to participate because you are a student at UAlbany, are at least 18 years old, and are proficient in English.</p>

      <h3 style=""color: #333; font-size: 18px; margin-top: 25px; margin-bottom: 10px; font-weight: bold;"">
        What will I do if I choose to be in this study?
      </h3>
      <p style=""margin-bottom: 10px;"">If you choose to take part in our study, you will do the following:</p>
      <p style=""margin-bottom: 8px; margin-left: 20px;"">1. Read and agree to the informed consent.</p>
      <p style=""margin-bottom: 8px; margin-left: 40px;"">a. If you choose not to agree to the informed consent, you will be taken back to the SONA site.</p>
      <p style=""margin-bottom: 8px; margin-left: 20px;"">2. Complete a demographic questionnaire that asks about your age, English proficiency, gender, and race.</p>
      <p style=""margin-bottom: 8px; margin-left: 20px;"">3. Read instructions for the visual search task, which asks you to indicate if a target (a red triangle) is present among various other colored shapes. You should press the ""F"" key if a red triangle is present, or the ""J"" key if the target is absent.</p>
      <p style=""margin-bottom: 8px; margin-left: 20px;"">4. You will be asked to respond to 270 visual search trials, whith the opportunity to take short breaks as you go</p>
      <p style=""margin-bottom: 8px; margin-left: 20px;"">5. You will complete the Mindfulness Attention Awareness Scale (MAAS), the Satisfaction With Life Scale (SWLS), and the Big Five Inventory.</p>
      <p style=""margin-bottom: 25px; margin-left: 20px;"">6.	After all questionnaires are completed, participants will be thanked for their time and will be provided the study debriefing. Following the debriefing, you will be sent back to the SONA research site.</p>

      <h3 style=""color: #333; font-size: 18px; margin-top: 25px; margin-bottom: 10px; font-weight: bold;"">
        For how long will I participate?
      </h3>
      <p style=""margin-bottom: 25px;"">This study is a single online session that you can complete on a computer. The study can be completed in less than 30 minutes but could require as long as 45 minutes to complete.</p>

      <h3 style=""color: #333; font-size: 18px; margin-top: 25px; margin-bottom: 10px; font-weight: bold;"">
        Where will I need to go to participate?
      </h3>
      <p style=""margin-bottom: 25px;"">All study procedures will take place online and can be completed wherever you have internet connection.</p>

      <h3 style=""color: #333; font-size: 18px; margin-top: 25px; margin-bottom: 10px; font-weight: bold;"">
        Are there any costs I should be aware of?
      </h3>
      <p style=""margin-bottom: 25px;"">Participation is not expected to incur cost to participants. Free internet access is available anywhere on campus and in the university library.</p>

      <h3 style=""color: #333; font-size: 18px; margin-top: 25px; margin-bottom: 10px; font-weight: bold;"">
        What are the possible risks or discomforts?
      </h3>
      <p style=""margin-bottom: 15px;"">As with all research, there is a chance that confidentiality of the information we collect from you could be breached – we will take steps to minimize this risk, as discussed in more detail below.</p>
      
      <p style=""margin-bottom: 25px;"">The risks associated with participating in this study are minimal; however, you may experience mild discomfort when reflecting on your mindfulness or life satisfaction when answering questionnaires in the study. To help minimize this, you can withdraw from the study at any time without any consequences. The study will take place online, and you will have the opportunity to take breaks while completing the survey to reduce the risk of eye strain associated with the use of electronic devices.</p>

      <h3 style=""color: #333; font-size: 18px; margin-top: 25px; margin-bottom: 10px; font-weight: bold;"">
        What are the possible benefits for me or others?
      </h3>
      <p style=""margin-bottom: 25px;"">While there are no direct personal benefits to participants of this study, you may find value in reflecting on your mindfulness, attention, and its impact on life satisfaction by completing this survey. The data you contribute may help advance society's understanding of how mindfulness and attention relate to overall well-being, potentially informing future programs or interventions aimed at improving student mental health, attention, and life satisfaction.</p>

      <h3 style=""color: #333; font-size: 18px; margin-top: 25px; margin-bottom: 10px; font-weight: bold;"">
        Will I receive compensation for my participation?
      </h3>
      <p style=""margin-bottom: 25px;"">SONA partial class credit will be awarded via the Psychology Department SONA research pool after you complete the survey in its entirety. Participants who withdraw before completing the survey will not receive partial credit. You will not receive monetary compensation for your participation in this study.</p>

      <h3 style=""color: #333; font-size: 18px; margin-top: 25px; margin-bottom: 10px; font-weight: bold;"">
        How will you protect the information you collect about me, and how will that information be shared?
      </h3>
      <p style=""margin-bottom: 15px;"">Results of this study may be used in publications and presentations. Your data will be handled as confidentially as possible, and no identifiable information will be collected to link your data back to you. If results of this study are published or presented, only de-identified summaries of data will be used.</p>
      
      <p style=""margin-bottom: 25px;"">To minimize the risks to confidentiality, all data will be collected anonymously via Pavlovia.org which uses encryption to protect information (https://pavlovia.org/docs/home/ethics). Only the student researcher (Ella Bremmer), mentor (Pierce Johnson), and faculty advisor (Gregory Cox) will have password-protected access to the data. Data will be stored on secure, university approved computers.</p>

      <h3 style=""color: #333; font-size: 18px; margin-top: 25px; margin-bottom: 10px; font-weight: bold;"">
        Will my data be used in future research?
      </h3>
      <p style=""margin-bottom: 25px;"">No personal identifiers will be collected in the data you provide us. Data will not be used in future research, and will be deleted after the required retention period.</p>

      <h3 style=""color: #333; font-size: 18px; margin-top: 25px; margin-bottom: 10px; font-weight: bold;"">
        What are my rights as a research participant?
      </h3>
      <p style=""margin-bottom: 15px;"">Participation in this study is voluntary. You do not have to answer any question you do not want to answer. If at any time and for any reason, you would prefer not to participate in this study, please feel free not to. If at any time you would like to stop participating, you are welcome to stop. You can take a break or stop altogether. You may withdraw from this study at any time, and you will not be penalized in any way for deciding to stop participation.</p>
      
      <p style=""margin-bottom: 25px;"">If you decide to withdraw from this study, any information collected from you before withdrawing will not be used, and your data will be deleted.</p>

      <h3 style=""color: #333; font-size: 18px; margin-top: 25px; margin-bottom: 10px; font-weight: bold;"">
        What if I am a University at Albany student or employee?
      </h3>
      <p style=""margin-bottom: 25px;"">You may choose not to participate or to stop participating in this research at any time. This will not affect your class standing, grades, employment, or any other aspects of your relationship with the University at Albany.</p>

      <h3 style=""color: #333; font-size: 18px; margin-top: 25px; margin-bottom: 10px; font-weight: bold;"">
        Who can I contact if I have questions or concerns about this research study?
      </h3>
      <p style=""margin-bottom: 15px;"">If you have questions, please feel free to stop and email the investigator, Ella Bremmer (ebremmer@albany.edu) or advisors, Pierce Johnson (pjohnson4@albany.edu) and Dr. Greg Cox (gecox@albany.edu). If you have questions later, you may also contact the researchers.</p>
      
      <p style=""margin-bottom: 10px;"">If you have any questions about your rights as a participant in this research, you can contact the following office at the University at Albany:</p>
      
      <p style=""margin-bottom: 5px; margin-left: 20px;"">Institutional Review Board</p>
      <p style=""margin-bottom: 5px; margin-left: 20px;"">University at Albany</p>
      <p style=""margin-bottom: 5px; margin-left: 20px;"">Office of Regulatory and Research Compliance</p>
      <p style=""margin-bottom: 5px; margin-left: 20px;"">1400 Washington Ave, Biology 227</p>
      <p style=""margin-bottom: 5px; margin-left: 20px;"">Albany, NY 12222</p>
      <p style=""margin-bottom: 5px; margin-left: 20px;"">Phone: 1-866-857-5459</p>
      <p style=""margin-bottom: 25px; margin-left: 20px;"">Email: rco@albany.edu</p>

      <h3 style=""color: #333; font-size: 18px; margin-top: 30px; margin-bottom: 10px; font-weight: bold;"">
        Consent
      </h3>
      <p style=""margin-bottom: 20px;"">I have read this form and the research study has been explained to me. I have been given the opportunity to ask questions and my questions have been answered. If I have additional questions, I have been told whom to contact. I agree to participate in the research study described above. I understand that I have the opportunity to download and save a copy of this form for my records.</p>

      <div style=""background-color: #f9f9f9; border: 2px solid #4CAF50; border-radius: 5px; padding: 20px; margin-top: 20px; margin-bottom: 20px;"">
        <p style=""margin-bottom: 15px; font-weight: bold;"">To save a copy of this consent form for your records, press Ctrl+P (Windows/Linux) or Cmd+P (Mac) and select ""Save as PDF"".</p>
        <p style=""margin-bottom: 0; font-weight: bold;"">By clicking ""I Agree"" below, I confirm that I agree to participate in the research study described above, and that doing so serves as my written signature consenting to take part in the study.</p>
      </div>
    </div>
  ","0","true","","","","","","","","","","","","","","","",""
"instructions","3","2.1.0","12851","78679","intro_instructions","2052","","","","f","[{""page_index"":0,""viewing_time"":2052}]","","","","","","","","","","","","","",""
"html-keyboard-response","4","2.1.0","14861","78679","intermediate_slide_demo","null","<p style=""font-size:4vw"">Demographic Questionnaire</p>","null","","","","","","","","","","","","","","","","",""
"survey-multi-choice","5","2.1.0","20665","78679","demographics_english","5800","","{""english"":""Strongly agree""}","","","","[0]","","","","","","","","","","","","",""
"survey-text","7","2.1.0","24020","78679","demographics_age","3337","","{""age"":""18""}","","","","","","","","","","","","","","","","",""
"survey-multi-select","9","2.1.0","27472","78679","demographics_gender","3435","","{""gender"":[""Man""]}","","","","[0]","","","","","","","","","","","","",""
"survey-multi-choice","11","2.1.0","32766","78679","demographics_race","5285","","{""race"":""Asian or Pacific Islander""}","","","","[0]","","","","","","","","","","","","",""
"html-keyboard-response","12","2.1.0","34771","78679","intermediate_slide_VS","null","<p style=""font-size:4vw"">Visual Search Task</p>","null","","","","","","","","","","","","","","","","",""
"preload","13","2.1.0","35093","78679","image_preload","","","","","","","","true","false","[]","[]","[]","","","","","","","",""
"html-button-response","14","2.1.0","36950","78679","vs_instructions","1846","<p>On the following screens, you will see a series of colored shapes (triangles, squares, and circles) appear.</p>
    <p>Please Press 'F' if there <strong>is</strong> a red triangle among the shapes you see.</p>
    <p>Press 'J' if there is <strong>not</strong> a red triangle among the shapes you see.</p>","0","","","","","","","","","","","","","","","","",""
"visual-search-circle","15","2.2.0","42753","78679","visual_search_trial","4290","","f","","","","","","","","","","null","red_circle","0","[""images/Red_Triangle.png"",""images/Red_Circle.png"",""images/Red_Circle.png"",""images/Red_Circle.png"",""images/Red_Circle.png"",""images/Red_Circle.png"",""images/Red_Circle.png"",""images/Red_Circle.png"",""images/Red_Circle.png""]","true","[[72,238],[157,245],[227,196],[249,114],[213,36],[135,0],[53,22],[4,92],[11,177]]","true",""
"visual-search-circle","16","2.2.0","47762","78679","visual_search_trial","3499","","f","","","","","","","","","","null","blue_triangle","0","[""images/Red_Triangle.png"",""images/Blue_Triangle.png"",""images/Blue_Triangle.png"",""images/Blue_Triangle.png"",""images/Blue_Triangle.png"",""images/Blue_Triangle.png""]","true","[[146,1],[29,44],[7,167],[103,248],[220,205],[242,82]]","true",""
"visual-search-circle","17","2.2.0","51499","78679","visual_search_trial","2224","","j","","","","","","","","","","null","red_blue_mix","0","[""images/Red_Circle.png"",""images/Red_Circle.png"",""images/Blue_Triangle.png"",""images/Red_Circle.png"",""images/Red_Circle.png"",""images/Red_Circle.png"",""images/Blue_Circle.png"",""images/Blue_Circle.png"",""images/Blue_Circle.png""]","true","[[245,90],[194,21],[111,0],[35,38],[0,116],[23,198],[94,246],[179,237],[239,175]]","false",""
"visual-search-circle","18","2.2.0","54348","78679","visual_search_trial","1340","","j","","","","","","","","","","null","blue_triangle","0","[""images/Blue_Triangle.png"",""images/Blue_Triangle.png"",""images/Blue_Triangle.png"",""images/Blue_Triangle.png"",""images/Blue_Triangle.png"",""images/Blue_Triangle.png"",""images/Blue_Triangle.png"",""images/Blue_Triangle.png"",""images/Blue_Triangle.png""]","true","[[205,29],[125,0],[44,29],[1,103],[16,187],[82,242],[167,242],[233,187],[248,103]]","false",""
"visual-search-circle","19","2.2.0","58588","78679","visual_search_trial","2724","","j","","","","","","","","","","null","red_circle","0","[""images/Red_Circle.png"",""images/Red_Circle.png"",""images/Red_Circle.png"",""images/Red_Circle.png"",""images/Red_Circle.png"",""images/Red_Circle.png""]","true","[[23,198],[138,249],[239,175],[226,51],[111,0],[10,74]]","false",""
"visual-search-circle","20","2.2.0","60816","78679","visual_search_trial","714","","f","","","","","","","","","","null","red_blue_mix","0","[""images/Red_Triangle.png"",""images/Blue_Circle.png"",""images/Blue_Circle.png""]","true","[[187,233],[187,16],[0,124]]","true",""
"visual-search-circle","21","2.2.0","63682","78679","visual_search_trial","1359","","j","","","","","","","","","","null","blue_triangle","0","[""images/Blue_Triangle.png"",""images/Blue_Triangle.png"",""images/Blue_Triangle.png"",""images/Blue_Triangle.png"",""images/Blue_Triangle.png"",""images/Blue_Triangle.png""]","true","[[35,211],[155,246],[245,159],[214,38],[94,3],[4,90]]","false",""
"visual-search-circle","22","2.2.0","66767","78679","visual_search_trial","1568","","j","","","","","","","","","","null","red_blue_mix","0","[""images/Red_Circle.png"",""images/Blue_Triangle.png"",""images/Blue_Circle.png"",""images/Red_Circle.png"",""images/Blue_Circle.png"",""images/Red_Circle.png""]","true","[[163,6],[41,32],[2,150],[86,243],[208,217],[247,99]]","false",""
"visual-search-circle","23","2.2.0","69643","78679","visual_search_trial","1371","","j","","","","","","","","","","null","red_circle","0","[""images/Red_Circle.png"",""images/Red_Circle.png"",""images/Red_Circle.png"",""images/Red_Circle.png"",""images/Red_Circle.png"",""images/Red_Circle.png"",""images/Red_Circle.png"",""images/Red_Circle.png"",""images/Red_Circle.png""]","true","[[62,233],[146,248],[220,205],[250,125],[220,44],[146,1],[62,16],[7,82],[7,167]]","false",""
"visual-search-circle","24","2.2.0","72545","78679","visual_search_trial","1392","","j","","","","","","","","","","null","red_blue_mix","0","[""images/Blue_Circle.png"",""images/Blue_Triangle.png"",""images/Blue_Triangle.png""]","true","[[161,5],[3,153],[210,216]]","false",""
"visual-search-circle","25","2.2.0","74901","78679","visual_search_trial","837","","f","","","","","","","","","","null","blue_triangle","0","[""images/Red_Triangle.png"",""images/Blue_Triangle.png"",""images/Blue_Triangle.png"",""images/Blue_Triangle.png"",""images/Blue_Triangle.png"",""images/Blue_Triangle.png"",""images/Blue_Triangle.png"",""images/Blue_Triangle.png"",""images/Blue_Triangle.png""]","true","[[167,242],[233,187],[248,103],[205,29],[125,0],[44,29],[1,103],[16,187],[82,242]]","true",""
"visual-search-circle","26","2.2.0","77051","78679","visual_search_trial","639","","f","","","","","","","","","","null","red_blue_mix","0","[""images/Red_Triangle.png"",""images/Red_Circle.png"",""images/Red_Circle.png"",""images/Blue_Triangle.png"",""images/Blue_Circle.png"",""images/Blue_Triangle.png"",""images/Blue_Circle.png"",""images/Red_Circle.png"",""images/Blue_Circle.png""]","true","[[1,146],[44,220],[125,250],[205,220],[248,146],[233,62],[167,7],[82,7],[16,62]]","true",""
"visual-search-circle","27","2.2.0","79431","78679","visual_search_trial","870","","j","","","","","","","","","","null","red_circle","0","[""images/Red_Circle.png"",""images/Red_Circle.png"",""images/Red_Circle.png""]","true","[[6,165],[219,207],[148,2]]","false",""
"visual-search-circle","28","2.2.0","81677","78679","visual_search_trial","739","","f","","","","","","","","","","null","blue_triangle","0","[""images/Red_Triangle.png"",""images/Blue_Triangle.png"",""images/Blue_Triangle.png""]","true","[[58,231],[249,129],[66,14]]","true",""
"visual-search-circle","29","2.2.0","84104","78679","visual_search_trial","916","","f","","","","","","","","","","null","red_circle","0","[""images/Red_Triangle.png"",""images/Red_Circle.png"",""images/Red_Circle.png"",""images/Red_Circle.png"",""images/Red_Circle.png"",""images/Red_Circle.png""]","true","[[1,105],[46,222],[169,241],[248,144],[203,27],[80,8]]","true",""
"visual-search-circle","30","2.2.0","86493","78679","visual_search_trial","885","","j","","","","","","","","","","null","blue_triangle","0","[""images/Blue_Triangle.png"",""images/Blue_Triangle.png"",""images/Blue_Triangle.png""]","true","[[228,55],[12,70],[133,249]]","false",""
"visual-search-circle","31","2.2.0","88677","78679","visual_search_trial","667","","f","","","","","","","","","","null","red_circle","0","[""images/Red_Triangle.png"",""images/Red_Circle.png"",""images/Red_Circle.png""]","true","[[80,8],[46,222],[248,144]]","true",""
"visual-search-circle","32","2.2.0","90869","78679","visual_search_trial","680","","f","","","","","","","","","","null","red_blue_mix","0","[""images/Red_Triangle.png"",""images/Blue_Triangle.png"",""images/Blue_Circle.png"",""images/Blue_Triangle.png"",""images/Red_Circle.png"",""images/Red_Circle.png""]","true","[[82,7],[1,103],[44,220],[167,242],[248,146],[205,29]]","true",""
"visual-search-circle","33","2.2.0","92962","78679","visual_search_trial","581","","f","","","","","","","","","","null","red_circle","1","[""images/Red_Triangle.png"",""images/Red_Circle.png"",""images/Red_Circle.png"",""images/Red_Circle.png"",""images/Red_Circle.png"",""images/Red_Circle.png""]","true","[[236,68],[131,0],[20,56],[13,181],[118,249],[229,193]]","true",""
"visual-search-circle","34","2.2.0","95563","78679","visual_search_trial","1093","","j","","","","","","","","","","null","red_blue_mix","1","[""images/Blue_Triangle.png"",""images/Blue_Circle.png"",""images/Blue_Triangle.png"",""images/Red_Circle.png"",""images/Blue_Circle.png"",""images/Blue_Circle.png""]","true","[[6,84],[30,207],[148,247],[243,165],[219,42],[101,2]]","false",""
"visual-search-circle","35","2.2.0","98346","78679","visual_search_trial","1273","","j","","","","","","","","","","null","red_circle","1","[""images/Red_Circle.png"",""images/Red_Circle.png"",""images/Red_Circle.png"",""images/Red_Circle.png"",""images/Red_Circle.png"",""images/Red_Circle.png"",""images/Red_Circle.png"",""images/Red_Circle.png"",""images/Red_Circle.png""]","true","[[68,13],[9,76],[5,161],[56,229],[140,249],[216,210],[249,131],[224,49],[153,3]]","false",""
"visual-search-circle","36","2.2.0","100527","78679","visual_search_trial","675","","f","","","","","","","","","","null","red_blue_mix","1","[""images/Red_Triangle.png"",""images/Blue_Circle.png"",""images/Blue_Triangle.png"",""images/Blue_Circle.png"",""images/Blue_Triangle.png"",""images/Blue_Triangle.png"",""images/Red_Circle.png"",""images/Red_Circle.png"",""images/Blue_Triangle.png""]","true","[[4,92],[11,177],[72,238],[157,245],[227,196],[249,114],[213,36],[135,0],[53,22]]","true",""
"visual-search-circle","37","2.2.0","102968","78679","visual_search_trial","929","","j","","","","","","","","","","null","blue_triangle","1","[""images/Blue_Triangle.png"",""images/Blue_Triangle.png"",""images/Blue_Triangle.png""]","true","[[94,246],[245,90],[35,38]]","false",""
"visual-search-circle","38","2.2.0","106132","78679","visual_search_trial","1648","","j","","","","","","","","","","null","red_blue_mix","1","[""images/Red_Circle.png"",""images/Red_Circle.png"",""images/Blue_Triangle.png"",""images/Blue_Triangle.png"",""images/Blue_Circle.png"",""images/Blue_Circle.png"",""images/Blue_Circle.png"",""images/Blue_Circle.png"",""images/Blue_Triangle.png""]","true","[[74,239],[159,245],[228,194],[249,111],[211,35],[133,0],[51,23],[3,94],[12,179]]","false",""
"visual-search-circle","39","2.2.0","108242","78679","visual_search_trial","597","","f","","","","","","","","","","null","red_circle","1","[""images/Red_Triangle.png"",""images/Red_Circle.png"",""images/Red_Circle.png"",""images/Red_Circle.png"",""images/Red_Circle.png"",""images/Red_Circle.png"",""images/Red_Circle.png"",""images/Red_Circle.png"",""images/Red_Circle.png""]","true","[[94,246],[179,237],[239,175],[245,90],[194,21],[111,0],[35,38],[0,116],[23,198]]","true",""
"visual-search-circle","40","2.2.0","110782","78679","visual_search_trial","1025","","f","","","","","","","","","","null","blue_triangle","1","[""images/Red_Triangle.png"",""images/Blue_Triangle.png"",""images/Blue_Triangle.png"",""images/Blue_Triangle.png"",""images/Blue_Triangle.png"",""images/Blue_Triangle.png""]","true","[[240,173],[224,49],[109,0],[9,76],[25,200],[140,249]]","true",""
"visual-search-circle","41","2.2.0","113105","78679","visual_search_trial","814","","f","","","","","","","","","","null","red_blue_mix","1","[""images/Red_Triangle.png"",""images/Blue_Triangle.png"",""images/Blue_Circle.png""]","true","[[6,165],[219,207],[148,2]]","true",""
"visual-search-circle","42","2.2.0","115123","78679","visual_search_trial","502","","f","","","","","","","","","","null","blue_triangle","1","[""images/Red_Triangle.png"",""images/Blue_Triangle.png"",""images/Blue_Triangle.png"",""images/Blue_Triangle.png"",""images/Blue_Triangle.png"",""images/Blue_Triangle.png"",""images/Blue_Triangle.png"",""images/Blue_Triangle.png"",""images/Blue_Triangle.png""]","true","[[49,25],[3,96],[13,181],[76,240],[161,244],[229,193],[249,109],[210,33],[131,0]]","true",""
"visual-search-circle","43","2.2.0","117711","78679","visual_search_trial","1081","","j","","","","","","","","","","null","red_circle","1","[""images/Red_Circle.png"",""images/Red_Circle.png"",""images/Red_Circle.png"",""images/Red_Circle.png"",""images/Red_Circle.png"",""images/Red_Circle.png""]","true","[[224,49],[109,0],[9,76],[25,200],[140,249],[240,173]]","false",""
"visual-search-circle","44","2.2.0","123579","78679","visual_search_trial","4356","","j","","","","","","","","","","null","blue_triangle","1","[""images/Blue_Triangle.png"",""images/Blue_Triangle.png"",""images/Blue_Triangle.png"",""images/Blue_Triangle.png"",""images/Blue_Triangle.png"",""images/Blue_Triangle.png""]","true","[[165,243],[247,148],[207,30],[84,6],[2,101],[42,219]]","false",""
"visual-search-circle","45","2.2.0","126538","78679","visual_search_trial","1447","","j","","","","","","","","","","null","red_circle","1","[""images/Red_Circle.png"",""images/Red_Circle.png"",""images/Red_Circle.png""]","true","[[216,210],[153,3],[5,161]]","false",""
"visual-search-circle","46","2.2.0","129266","78679","visual_search_trial","1221","","j","","","","","","","","","","null","red_blue_mix","1","[""images/Blue_Circle.png"",""images/Blue_Circle.png"",""images/Red_Circle.png""]","true","[[1,142],[201,223],[171,9]]","false",""
"visual-search-circle","47","2.2.0","131867","78679","visual_search_trial","1089","","j","","","","","","","","","","null","blue_triangle","1","[""images/Blue_Triangle.png"",""images/Blue_Triangle.png"",""images/Blue_Triangle.png"",""images/Blue_Triangle.png"",""images/Blue_Triangle.png"",""images/Blue_Triangle.png"",""images/Blue_Triangle.png"",""images/Blue_Triangle.png"",""images/Blue_Triangle.png""]","true","[[249,109],[210,33],[131,0],[49,25],[3,96],[13,181],[76,240],[161,244],[229,193]]","false",""
"visual-search-circle","48","2.2.0","134712","78679","visual_search_trial","1341","","f","","","","","","","","","","null","red_circle","1","[""images/Red_Triangle.png"",""images/Red_Circle.png"",""images/Red_Circle.png""]","true","[[6,84],[148,247],[219,42]]","true",""
"visual-search-circle","49","2.2.0","137481","78679","visual_search_trial","1254","","j","","","","","","","","","","null","red_blue_mix","1","[""images/Red_Triangle.png"",""images/Red_Circle.png"",""images/Blue_Triangle.png"",""images/Red_Circle.png"",""images/Red_Circle.png"",""images/Red_Circle.png""]","false","[[217,208],[243,86],[150,2],[32,41],[6,163],[99,247]]","true",""
"visual-search-circle","50","2.2.0","141265","78679","visual_search_trial","2272","","f","","","","","","","","","","null","blue_triangle","1","[""images/Red_Triangle.png"",""images/Blue_Triangle.png"",""images/Blue_Triangle.png""]","true","[[161,5],[3,153],[210,216]]","true",""
"html-keyboard-response","51","2.1.0","150821","78679","break","9554","<p>Great job so far! Please rest for a few seconds before continuing.</p>
                 <p>Press the <strong>N</strong> key on your keyboard to continue.</p>","n","","","","","","","","","","","","","","","","","N"
"visual-search-circle","52","2.2.0","153381","78679","visual_search_trial","1049","","f","","","","","","","","","","null","blue_triangle","2","[""images/Red_Triangle.png"",""images/Blue_Triangle.png"",""images/Blue_Triangle.png""]","true","[[29,44],[103,248],[242,82]]","true",""
"visual-search-circle","53","2.2.0","156689","78679","visual_search_trial","1794","","j","","","","","","","","","","null","red_circle","2","[""images/Red_Circle.png"",""images/Red_Circle.png"",""images/Red_Circle.png"",""images/Red_Circle.png"",""images/Red_Circle.png"",""images/Red_Circle.png"",""images/Red_Circle.png"",""images/Red_Circle.png"",""images/Red_Circle.png""]","true","[[20,193],[88,244],[173,240],[236,181],[246,96],[200,25],[118,0],[39,33],[0,109]]","false",""
"visual-search-circle","54","2.2.0","159016","78679","visual_search_trial","815","","f","","","","","","","","","","null","red_blue_mix","2","[""images/Red_Triangle.png"",""images/Blue_Triangle.png"",""images/Red_Circle.png""]","true","[[242,82],[29,44],[103,248]]","true",""
"visual-search-circle","55","2.2.0","161978","78679","visual_search_trial","1457","","j","","","","","","","","","","null","blue_triangle","2","[""images/Blue_Triangle.png"",""images/Blue_Triangle.png"",""images/Blue_Triangle.png""]","true","[[245,92],[36,36],[92,245]]","false",""
"visual-search-circle","56","2.2.0","164878","78679","visual_search_trial","1391","","j","","","","","","","","","","null","red_circle","2","[""images/Red_Circle.png"",""images/Red_Circle.png"",""images/Red_Circle.png"",""images/Red_Circle.png"",""images/Red_Circle.png"",""images/Red_Circle.png""]","true","[[4,90],[35,211],[155,246],[245,159],[214,38],[94,3]]","false",""
"visual-search-circle","57","2.2.0","167677","78679","visual_search_trial","1291","","j","","","","","","","","","","null","red_blue_mix","2","[""images/Blue_Triangle.png"",""images/Blue_Triangle.png"",""images/Blue_Triangle.png""]","true","[[241,169],[105,1],[27,203]]","false",""
"visual-search-circle","58","2.2.0","170296","78679","visual_search_trial","1108","","f","","","","","","","","","","null","blue_triangle","2","[""images/Red_Triangle.png"",""images/Blue_Triangle.png"",""images/Blue_Triangle.png"",""images/Blue_Triangle.png"",""images/Blue_Triangle.png"",""images/Blue_Triangle.png"",""images/Blue_Triangle.png"",""images/Blue_Triangle.png"",""images/Blue_Triangle.png""]","true","[[224,200],[249,118],[216,39],[140,0],[56,20],[5,88],[9,173],[68,236],[153,246]]","true",""
"visual-search-circle","59","2.2.0","172852","78679","visual_search_trial","1039","","j","","","","","","","","","","null","red_circle","2","[""images/Red_Circle.png"",""images/Red_Circle.png"",""images/Red_Circle.png""]","true","[[92,4],[36,213],[245,157]]","false",""
"visual-search-circle","60","2.2.0","175397","78679","visual_search_trial","1033","","f","","","","","","","","","","null","red_blue_mix","2","[""images/Red_Triangle.png"",""images/Blue_Triangle.png"",""images/Blue_Circle.png"",""images/Red_Circle.png"",""images/Blue_Triangle.png"",""images/Blue_Triangle.png""]","true","[[44,220],[167,242],[248,146],[205,29],[82,7],[1,103]]","true",""
"visual-search-circle","61","2.2.0","177963","78679","visual_search_trial","1056","","f","","","","","","","","","","null","red_circle","2","[""images/Red_Triangle.png"",""images/Red_Circle.png"",""images/Red_Circle.png"",""images/Red_Circle.png"",""images/Red_Circle.png"",""images/Red_Circle.png""]","true","[[167,242],[248,146],[205,29],[82,7],[1,103],[44,220]]","true",""
"visual-search-circle","62","2.2.0","180542","78679","visual_search_trial","1074","","j","","","","","","","","","","null","red_blue_mix","2","[""images/Blue_Triangle.png"",""images/Blue_Circle.png"",""images/Blue_Triangle.png"",""images/Red_Circle.png"",""images/Blue_Circle.png"",""images/Blue_Triangle.png""]","true","[[55,228],[179,237],[249,133],[194,21],[70,12],[0,116]]","false",""
"visual-search-circle","63","2.2.0","183154","78679","visual_search_trial","1095","","f","","","","","","","","","","null","red_circle","2","[""images/Red_Triangle.png"",""images/Red_Circle.png"",""images/Red_Circle.png""]","true","[[9,76],[140,249],[224,49]]","true",""
"visual-search-circle","64","2.2.0","186855","78679","visual_search_trial","2183","","f","","","","","","","","","","null","blue_triangle","2","[""images/Red_Triangle.png"",""images/Blue_Triangle.png"",""images/Blue_Triangle.png"",""images/Blue_Triangle.png"",""images/Blue_Triangle.png"",""images/Blue_Triangle.png""]","true","[[240,78],[142,1],[26,48],[9,171],[107,248],[223,201]]","true",""
"visual-search-circle","65","2.2.0","189521","78679","visual_search_trial","1150","","f","","","","","","","","","","null","red_circle","2","[""images/Red_Triangle.png"",""images/Red_Circle.png"",""images/Red_Circle.png"",""images/Red_Circle.png"",""images/Red_Circle.png"",""images/Red_Circle.png"",""images/Red_Circle.png"",""images/Red_Circle.png"",""images/Red_Circle.png""]","true","[[198,226],[246,155],[237,70],[175,10],[90,4],[21,55],[0,138],[38,214],[116,249]]","true",""
"visual-search-circle","66","2.2.0","192077","78679","visual_search_trial","1048","","j","","","","","","","","","","null","blue_triangle","2","[""images/Blue_Triangle.png"",""images/Blue_Triangle.png"",""images/Blue_Triangle.png"",""images/Blue_Triangle.png"",""images/Blue_Triangle.png"",""images/Blue_Triangle.png""]","true","[[243,86],[150,2],[32,41],[6,163],[99,247],[217,208]]","false",""
"visual-search-circle","67","2.2.0","195040","78679","visual_search_trial","1450","","f","","","","","","","","","","null","red_blue_mix","2","[""images/Red_Triangle.png"",""images/Red_Circle.png"",""images/Blue_Triangle.png"",""images/Blue_Circle.png"",""images/Red_Circle.png"",""images/Blue_Circle.png"",""images/Blue_Circle.png"",""images/Red_Circle.png"",""images/Blue_Circle.png""]","true","[[22,196],[92,245],[177,238],[238,177],[245,92],[196,22],[114,0],[36,36],[0,114]]","true",""
"visual-search-circle","68","2.2.0","197639","78679","visual_search_trial","1092","","j","","","","","","","","","","null","blue_triangle","2","[""images/Blue_Triangle.png"",""images/Blue_Triangle.png"",""images/Blue_Triangle.png"",""images/Blue_Triangle.png"",""images/Blue_Triangle.png"",""images/Blue_Triangle.png"",""images/Blue_Triangle.png"",""images/Blue_Triangle.png"",""images/Blue_Triangle.png""]","true","[[245,157],[238,72],[177,11],[92,4],[22,53],[0,135],[36,213],[114,249],[196,227]]","false",""
"visual-search-circle","69","2.2.0","200985","78679","visual_search_trial","1836","","j","","","","","","","","","","null","red_blue_mix","2","[""images/Blue_Circle.png"",""images/Blue_Triangle.png"",""images/Blue_Triangle.png"",""images/Blue_Circle.png"",""images/Blue_Circle.png"",""images/Blue_Circle.png"",""images/Blue_Triangle.png"",""images/Red_Circle.png"",""images/Red_Circle.png""]","true","[[16,187],[82,242],[167,242],[233,187],[248,103],[205,29],[125,0],[44,29],[1,103]]","false",""
"visual-search-circle","70","2.2.0","203452","78679","visual_search_trial","953","","f","","","","","","","","","","null","blue_triangle","3","[""images/Red_Triangle.png"",""images/Blue_Triangle.png"",""images/Blue_Triangle.png"",""images/Blue_Triangle.png"",""images/Blue_Triangle.png"",""images/Blue_Triangle.png"",""images/Blue_Triangle.png"",""images/Blue_Triangle.png"",""images/Blue_Triangle.png""]","true","[[42,219],[122,249],[203,222],[247,148],[234,64],[169,8],[84,6],[17,60],[1,144]]","true",""
"visual-search-circle","71","2.2.0","205919","78679","visual_search_trial","959","","j","","","","","","","","","","null","red_blue_mix","3","[""images/Red_Circle.png"",""images/Red_Circle.png"",""images/Blue_Triangle.png""]","true","[[240,78],[26,48],[107,248]]","false",""
"visual-search-circle","72","2.2.0","208453","78679","visual_search_trial","1019","","f","","","","","","","","","","null","red_circle","3","[""images/Red_Triangle.png"",""images/Red_Circle.png"",""images/Red_Circle.png"",""images/Red_Circle.png"",""images/Red_Circle.png"",""images/Red_Circle.png"",""images/Red_Circle.png"",""images/Red_Circle.png"",""images/Red_Circle.png""]","true","[[249,135],[227,53],[157,4],[72,11],[11,72],[4,157],[53,227],[135,249],[213,213]]","true",""
"visual-search-circle","73","2.2.0","211637","78679","visual_search_trial","1678","","f","","","","","","","","","","null","blue_triangle","3","[""images/Red_Triangle.png"",""images/Blue_Triangle.png"",""images/Blue_Triangle.png"",""images/Blue_Triangle.png"",""images/Blue_Triangle.png"",""images/Blue_Triangle.png""]","true","[[242,82],[146,1],[29,44],[7,167],[103,248],[220,205]]","true",""
"visual-search-circle","74","2.2.0","214508","78679","visual_search_trial","1361","","j","","","","","","","","","","null","red_circle","3","[""images/Red_Circle.png"",""images/Red_Circle.png"",""images/Red_Circle.png"",""images/Red_Circle.png"",""images/Red_Circle.png"",""images/Red_Circle.png""]","true","[[74,10],[0,111],[51,226],[175,239],[249,138],[198,23]]","false",""
"visual-search-circle","75","2.2.0","217054","78679","visual_search_trial","1027","","f","","","","","","","","","","null","red_blue_mix","3","[""images/Red_Triangle.png"",""images/Red_Circle.png"",""images/Red_Circle.png"",""images/Blue_Circle.png"",""images/Red_Circle.png"",""images/Red_Circle.png"",""images/Blue_Triangle.png"",""images/Red_Circle.png"",""images/Blue_Circle.png""]","true","[[18,191],[86,243],[171,240],[235,183],[247,99],[201,26],[120,0],[41,32],[1,107]]","true",""
"visual-search-circle","76","2.2.0","219463","78679","visual_search_trial","893","","j","","","","","","","","","","null","blue_triangle","3","[""images/Blue_Triangle.png"",""images/Blue_Triangle.png"",""images/Blue_Triangle.png"",""images/Blue_Triangle.png"",""images/Blue_Triangle.png"",""images/Blue_Triangle.png""]","true","[[127,0],[17,60],[15,185],[122,249],[232,189],[234,64]]","false",""
"visual-search-circle","77","2.2.0","221695","78679","visual_search_trial","727","","f","","","","","","","","","","null","red_circle","3","[""images/Red_Triangle.png"",""images/Red_Circle.png"",""images/Red_Circle.png"",""images/Red_Circle.png"",""images/Red_Circle.png"",""images/Red_Circle.png""]","true","[[238,177],[227,53],[114,0],[11,72],[22,196],[135,249]]","true",""
"visual-search-circle","78","2.2.0","224430","78679","visual_search_trial","1222","","j","","","","","","","","","","null","red_blue_mix","3","[""images/Red_Circle.png"",""images/Blue_Triangle.png"",""images/Red_Circle.png"",""images/Red_Circle.png"",""images/Blue_Circle.png"",""images/Red_Circle.png"",""images/Blue_Circle.png"",""images/Blue_Triangle.png"",""images/Blue_Triangle.png""]","true","[[111,249],[194,228],[245,159],[239,74],[179,12],[94,3],[23,51],[0,133],[35,211]]","false",""
"visual-search-circle","79","2.2.0","226507","78679","visual_search_trial","565","","f","","","","","","","","","","null","red_circle","3","[""images/Red_Triangle.png"",""images/Red_Circle.png"",""images/Red_Circle.png""]","true","[[187,233],[187,16],[0,124]]","true",""
"visual-search-circle","80","2.2.0","229245","78679","visual_search_trial","1225","","f","","","","","","","","","","null","red_blue_mix","3","[""images/Red_Triangle.png"",""images/Red_Circle.png"",""images/Red_Circle.png"",""images/Blue_Triangle.png"",""images/Red_Circle.png"",""images/Blue_Circle.png""]","true","[[196,22],[72,11],[0,114],[53,227],[177,238],[249,135]]","true",""
"visual-search-circle","81","2.2.0","231869","78679","visual_search_trial","1117","","f","","","","","","","","","","null","blue_triangle","3","[""images/Red_Triangle.png"",""images/Blue_Triangle.png"",""images/Blue_Triangle.png""]","true","[[18,191],[235,183],[120,0]]","true",""
"visual-search-circle","82","2.2.0","235621","78679","visual_search_trial","2242","","f","","","","","","","","","","null","red_blue_mix","3","[""images/Red_Triangle.png"",""images/Blue_Circle.png"",""images/Red_Circle.png""]","true","[[179,237],[194,21],[0,116]]","true",""
"visual-search-circle","83","2.2.0","238680","78679","visual_search_trial","1552","","j","","","","","","","","","","null","red_circle","3","[""images/Red_Circle.png"",""images/Red_Circle.png"",""images/Red_Circle.png""]","true","[[214,211],[155,3],[4,159]]","false",""
"visual-search-circle","84","2.2.0","241463","78679","visual_search_trial","1271","","j","","","","","","","","","","null","blue_triangle","3","[""images/Blue_Triangle.png"",""images/Blue_Triangle.png"",""images/Blue_Triangle.png"",""images/Blue_Triangle.png"",""images/Blue_Triangle.png"",""images/Blue_Triangle.png"",""images/Blue_Triangle.png"",""images/Blue_Triangle.png"",""images/Blue_Triangle.png""]","true","[[99,2],[26,48],[0,129],[32,208],[107,248],[191,231],[243,163],[240,78],[183,14]]","false",""
"visual-search-circle","85","2.2.0","243918","78679","visual_search_trial","948","","j","","","","","","","","","","null","red_blue_mix","3","[""images/Red_Circle.png"",""images/Blue_Circle.png"",""images/Blue_Circle.png"",""images/Red_Circle.png"",""images/Red_Circle.png"",""images/Red_Circle.png""]","true","[[14,183],[120,249],[231,191],[235,66],[129,0],[18,58]]","false",""
"visual-search-circle","86","2.2.0","246331","78679","visual_search_trial","902","","j","","","","","","","","","","null","blue_triangle","3","[""images/Blue_Triangle.png"",""images/Blue_Triangle.png"",""images/Blue_Triangle.png""]","true","[[191,18],[0,120],[183,235]]","false",""
"visual-search-circle","87","2.2.0","249656","78679","visual_search_trial","1807","","j","","","","","","","","","","null","red_circle","3","[""images/Red_Circle.png"",""images/Red_Circle.png"",""images/Red_Circle.png"",""images/Red_Circle.png"",""images/Red_Circle.png"",""images/Red_Circle.png"",""images/Red_Circle.png"",""images/Red_Circle.png"",""images/Red_Circle.png""]","true","[[10,175],[70,237],[155,246],[226,198],[249,116],[214,38],[138,0],[55,21],[4,90]]","false",""
"html-keyboard-response","88","2.1.0","254271","78679","break","4614","<p>Great job so far! Please rest for a few seconds before continuing.</p>
                 <p>Press the <strong>W</strong> key on your keyboard to continue.</p>","w","","","","","","","","","","","","","","","","","W"
"visual-search-circle","89","2.2.0","256492","78679","visual_search_trial","704","","f","","","","","","","","","","null","blue_triangle","4","[""images/Red_Triangle.png"",""images/Blue_Triangle.png"",""images/Blue_Triangle.png"",""images/Blue_Triangle.png"",""images/Blue_Triangle.png"",""images/Blue_Triangle.png"",""images/Blue_Triangle.png"",""images/Blue_Triangle.png"",""images/Blue_Triangle.png""]","true","[[29,44],[0,125],[29,205],[103,248],[187,233],[242,167],[242,82],[187,16],[103,1]]","true",""
"visual-search-circle","90","2.2.0","259336","78679","visual_search_trial","1330","","j","","","","","","","","","","null","red_blue_mix","4","[""images/Blue_Triangle.png"",""images/Red_Circle.png"",""images/Red_Circle.png"",""images/Red_Circle.png"",""images/Blue_Triangle.png"",""images/Blue_Circle.png""]","true","[[241,169],[222,46],[105,1],[8,80],[27,203],[144,248]]","false",""
"visual-search-circle","91","2.2.0","261935","78679","visual_search_trial","1093","","f","","","","","","","","","","null","red_circle","4","[""images/Red_Triangle.png"",""images/Red_Circle.png"",""images/Red_Circle.png"",""images/Red_Circle.png"",""images/Red_Circle.png"",""images/Red_Circle.png""]","true","[[159,245],[246,155],[211,35],[90,4],[3,94],[38,214]]","true",""
"visual-search-circle","92","2.2.0","264925","78679","visual_search_trial","1478","","j","","","","","","","","","","null","red_blue_mix","4","[""images/Red_Circle.png"",""images/Blue_Circle.png"",""images/Blue_Circle.png""]","true","[[84,243],[247,101],[42,30]]","false",""
"visual-search-circle","93","2.2.0","267686","78679","visual_search_trial","1248","","j","","","","","","","","","","null","blue_triangle","4","[""images/Blue_Triangle.png"",""images/Blue_Triangle.png"",""images/Blue_Triangle.png"",""images/Blue_Triangle.png"",""images/Blue_Triangle.png"",""images/Blue_Triangle.png"",""images/Blue_Triangle.png"",""images/Blue_Triangle.png"",""images/Blue_Triangle.png""]","true","[[142,1],[58,18],[6,86],[9,171],[66,235],[150,247],[223,201],[249,120],[217,41]]","false",""
"visual-search-circle","94","2.2.0","269955","78679","visual_search_trial","759","","f","","","","","","","","","","null","red_blue_mix","4","[""images/Red_Triangle.png"",""images/Blue_Circle.png"",""images/Red_Circle.png"",""images/Red_Circle.png"",""images/Blue_Circle.png"",""images/Blue_Triangle.png""]","true","[[74,10],[0,111],[51,226],[175,239],[249,138],[198,23]]","true",""
"visual-search-circle","95","2.2.0","272683","78679","visual_search_trial","1216","","j","","","","","","","","","","null","red_circle","4","[""images/Red_Circle.png"",""images/Red_Circle.png"",""images/Red_Circle.png""]","true","[[239,74],[23,51],[111,249]]","false",""
"visual-search-circle","96","2.2.0","274937","78679","visual_search_trial","746","","f","","","","","","","","","","null","red_blue_mix","4","[""images/Red_Triangle.png"",""images/Blue_Circle.png"",""images/Blue_Circle.png"",""images/Red_Circle.png"",""images/Blue_Triangle.png"",""images/Blue_Triangle.png"",""images/Blue_Triangle.png"",""images/Blue_Circle.png"",""images/Blue_Circle.png""]","true","[[48,223],[129,249],[208,217],[248,142],[231,58],[163,6],[78,9],[14,66],[2,150]]","true",""
"visual-search-circle","97","2.2.0","277462","78679","visual_search_trial","1018","","f","","","","","","","","","","null","blue_triangle","4","[""images/Red_Triangle.png"",""images/Blue_Triangle.png"",""images/Blue_Triangle.png"",""images/Blue_Triangle.png"",""images/Blue_Triangle.png"",""images/Blue_Triangle.png""]","true","[[249,133],[194,21],[70,12],[0,116],[55,228],[179,237]]","true",""
"visual-search-circle","98","2.2.0","279922","78679","visual_search_trial","949","","j","","","","","","","","","","null","red_circle","4","[""images/Red_Circle.png"",""images/Red_Circle.png"",""images/Red_Circle.png"",""images/Red_Circle.png"",""images/Red_Circle.png"",""images/Red_Circle.png"",""images/Red_Circle.png"",""images/Red_Circle.png"",""images/Red_Circle.png""]","true","[[105,248],[189,232],[243,165],[241,80],[185,15],[101,2],[27,46],[0,127],[30,207]]","false",""
"visual-search-circle","99","2.2.0","282924","78679","visual_search_trial","1492","","j","","","","","","","","","","null","blue_triangle","4","[""images/Blue_Triangle.png"",""images/Blue_Triangle.png"",""images/Blue_Triangle.png""]","true","[[35,38],[94,246],[245,90]]","false",""
"visual-search-circle","100","2.2.0","285310","78679","visual_search_trial","879","","j","","","","","","","","","","null","red_circle","4","[""images/Red_Circle.png"",""images/Red_Circle.png"",""images/Red_Circle.png"",""images/Red_Circle.png"",""images/Red_Circle.png"",""images/Red_Circle.png""]","true","[[148,247],[243,165],[219,42],[101,2],[6,84],[30,207]]","false",""
"visual-search-circle","101","2.2.0","288661","78679","visual_search_trial","1840","","j","","","","","","","","","","null","red_blue_mix","4","[""images/Red_Circle.png"",""images/Blue_Circle.png"",""images/Red_Circle.png"",""images/Blue_Triangle.png"",""images/Red_Circle.png"",""images/Blue_Triangle.png"",""images/Red_Circle.png"",""images/Blue_Triangle.png"",""images/Blue_Circle.png""]","true","[[99,2],[26,48],[0,129],[32,208],[107,248],[191,231],[243,163],[240,78],[183,14]]","false",""
"visual-search-circle","102","2.2.0","292038","78679","visual_search_trial","1871","","f","","","","","","","","","","null","blue_triangle","4","[""images/Red_Triangle.png"",""images/Blue_Triangle.png"",""images/Blue_Triangle.png""]","true","[[208,217],[163,6],[2,150]]","true",""
"visual-search-circle","103","2.2.0","295037","78679","visual_search_trial","1489","","j","","","","","","","","","","null","red_blue_mix","4","[""images/Red_Triangle.png"",""images/Blue_Triangle.png"",""images/Red_Circle.png""]","false","[[122,249],[234,64],[17,60]]","true",""
"visual-search-circle","104","2.2.0","298973","78679","visual_search_trial","2424","","f","","","","","","","","","","null","red_circle","4","[""images/Red_Triangle.png"",""images/Red_Circle.png"",""images/Red_Circle.png"",""images/Red_Circle.png"",""images/Red_Circle.png"",""images/Red_Circle.png"",""images/Red_Circle.png"",""images/Red_Circle.png"",""images/Red_Circle.png""]","true","[[3,153],[49,224],[131,249],[210,216],[249,140],[229,56],[161,5],[76,9],[13,68]]","true",""
"visual-search-circle","105","2.2.0","301445","78679","visual_search_trial","961","","j","","","","","","","","","","null","blue_triangle","4","[""images/Blue_Triangle.png"",""images/Blue_Triangle.png"",""images/Blue_Triangle.png"",""images/Blue_Triangle.png"",""images/Blue_Triangle.png"",""images/Blue_Triangle.png""]","true","[[56,229],[181,236],[249,131],[193,20],[68,13],[0,118]]","false",""
"visual-search-circle","106","2.2.0","303588","78679","visual_search_trial","633","","f","","","","","","","","","","null","red_circle","4","[""images/Red_Triangle.png"",""images/Red_Circle.png"",""images/Red_Circle.png""]","true","[[210,33],[3,96],[161,244]]","true",""
"visual-search-circle","107","2.2.0","305961","78679","visual_search_trial","869","","f","","","","","","","","","","null","red_circle","5","[""images/Red_Triangle.png"",""images/Red_Circle.png"",""images/Red_Circle.png""]","true","[[249,118],[56,20],[68,236]]","true",""
"visual-search-circle","108","2.2.0","308526","78679","visual_search_trial","1058","","f","","","","","","","","","","null","blue_triangle","5","[""images/Red_Triangle.png"",""images/Blue_Triangle.png"",""images/Blue_Triangle.png"",""images/Blue_Triangle.png"",""images/Blue_Triangle.png"",""images/Blue_Triangle.png"",""images/Blue_Triangle.png"",""images/Blue_Triangle.png"",""images/Blue_Triangle.png""]","true","[[198,226],[246,155],[237,70],[175,10],[90,4],[21,55],[0,138],[38,214],[116,249]]","true",""
"visual-search-circle","109","2.2.0","310667","78679","visual_search_trial","628","","f","","","","","","","","","","null","red_blue_mix","5","[""images/Red_Triangle.png"",""images/Blue_Triangle.png"",""images/Blue_Circle.png"",""images/Blue_Triangle.png"",""images/Blue_Triangle.png"",""images/Red_Circle.png"",""images/Red_Circle.png"",""images/Red_Circle.png"",""images/Red_Circle.png""]","true","[[1,105],[17,189],[84,243],[169,241],[234,185],[247,101],[203,27],[122,0],[42,30]]","true",""
"visual-search-circle","110","2.2.0","313076","78679","visual_search_trial","899","","j","","","","","","","","","","null","blue_triangle","5","[""images/Blue_Triangle.png"",""images/Blue_Triangle.png"",""images/Blue_Triangle.png"",""images/Blue_Triangle.png"",""images/Blue_Triangle.png"",""images/Blue_Triangle.png""]","true","[[21,194],[133,249],[237,179],[228,55],[116,0],[12,70]]","false",""
"visual-search-circle","111","2.2.0","316046","78679","visual_search_trial","1457","","f","","","","","","","","","","null","red_circle","5","[""images/Red_Triangle.png"",""images/Red_Circle.png"",""images/Red_Circle.png"",""images/Red_Circle.png"",""images/Red_Circle.png"",""images/Red_Circle.png"",""images/Red_Circle.png"",""images/Red_Circle.png"",""images/Red_Circle.png""]","true","[[157,245],[227,196],[249,114],[213,36],[135,0],[53,22],[4,92],[11,177],[72,238]]","true",""
"visual-search-circle","112","2.2.0","318175","78679","visual_search_trial","618","","f","","","","","","","","","","null","red_blue_mix","5","[""images/Red_Triangle.png"",""images/Blue_Triangle.png"",""images/Blue_Triangle.png"",""images/Red_Circle.png"",""images/Blue_Circle.png"",""images/Blue_Triangle.png""]","true","[[125,0],[16,62],[16,187],[125,250],[233,187],[233,62]]","true",""
"visual-search-circle","113","2.2.0","320169","78679","visual_search_trial","484","","f","","","","","","","","","","null","blue_triangle","5","[""images/Red_Triangle.png"",""images/Blue_Triangle.png"",""images/Blue_Triangle.png""]","true","[[70,12],[55,228],[249,133]]","true",""
"visual-search-circle","114","2.2.0","322736","78679","visual_search_trial","1048","","f","","","","","","","","","","null","red_blue_mix","5","[""images/Red_Triangle.png"",""images/Blue_Circle.png"",""images/Red_Circle.png""]","true","[[183,235],[191,18],[0,120]]","true",""
"visual-search-circle","115","2.2.0","325379","78679","visual_search_trial","1132","","j","","","","","","","","","","null","red_circle","5","[""images/Red_Circle.png"",""images/Red_Circle.png"",""images/Red_Circle.png"",""images/Red_Circle.png"",""images/Red_Circle.png"",""images/Red_Circle.png"",""images/Red_Circle.png"",""images/Red_Circle.png"",""images/Red_Circle.png""]","true","[[240,78],[183,14],[99,2],[26,48],[0,129],[32,208],[107,248],[191,231],[243,163]]","false",""
"visual-search-circle","116","2.2.0","327316","78679","visual_search_trial","417","","f","","","","","","","","","","null","blue_triangle","5","[""images/Red_Triangle.png"",""images/Blue_Triangle.png"",""images/Blue_Triangle.png"",""images/Blue_Triangle.png"",""images/Blue_Triangle.png"",""images/Blue_Triangle.png""]","true","[[249,114],[177,11],[53,22],[0,135],[72,238],[196,227]]","true",""
"visual-search-circle","117","2.2.0","329767","78679","visual_search_trial","945","","j","","","","","","","","","","null","red_circle","5","[""images/Red_Circle.png"",""images/Red_Circle.png"",""images/Red_Circle.png"",""images/Red_Circle.png"",""images/Red_Circle.png"",""images/Red_Circle.png""]","true","[[167,7],[44,29],[1,146],[82,242],[205,220],[248,103]]","false",""
"visual-search-circle","118","2.2.0","332506","78679","visual_search_trial","1229","","j","","","","","","","","","","null","red_blue_mix","5","[""images/Blue_Triangle.png"",""images/Blue_Circle.png"",""images/Red_Circle.png"",""images/Blue_Triangle.png"",""images/Red_Circle.png"",""images/Red_Circle.png""]","true","[[233,187],[233,62],[125,0],[16,62],[16,187],[124,250]]","false",""
"visual-search-circle","119","2.2.0","335764","78679","visual_search_trial","1744","","j","","","","","","","","","","null","red_circle","5","[""images/Red_Circle.png"",""images/Red_Circle.png"",""images/Red_Circle.png""]","true","[[10,74],[138,249],[226,51]]","false",""
"visual-search-circle","120","2.2.0","338286","78679","visual_search_trial","1016","","j","","","","","","","","","","null","blue_triangle","5","[""images/Blue_Triangle.png"",""images/Blue_Triangle.png"",""images/Blue_Triangle.png"",""images/Blue_Triangle.png"",""images/Blue_Triangle.png"",""images/Blue_Triangle.png"",""images/Blue_Triangle.png"",""images/Blue_Triangle.png"",""images/Blue_Triangle.png""]","true","[[49,224],[131,249],[210,216],[249,140],[229,56],[161,5],[76,9],[13,68],[3,153]]","false",""
"visual-search-circle","121","2.2.0","341048","78679","visual_search_trial","1254","","j","","","","","","","","","","null","red_blue_mix","5","[""images/Red_Circle.png"",""images/Blue_Circle.png"",""images/Blue_Circle.png""]","true","[[185,15],[0,127],[189,232]]","false",""
"visual-search-circle","122","2.2.0","345162","78679","visual_search_trial","2608","","j","","","","","","","","","","null","blue_triangle","5","[""images/Blue_Triangle.png"",""images/Blue_Triangle.png"",""images/Blue_Triangle.png""]","true","[[228,194],[133,0],[12,179]]","false",""
"visual-search-circle","123","2.2.0","347819","78679","visual_search_trial","1152","","f","","","","","","","","","","null","red_circle","5","[""images/Red_Triangle.png"",""images/Red_Circle.png"",""images/Red_Circle.png"",""images/Red_Circle.png"",""images/Red_Circle.png"",""images/Red_Circle.png""]","true","[[86,6],[2,99],[41,217],[163,243],[247,150],[208,32]]","true",""
"visual-search-circle","124","2.2.0","352119","78679","visual_search_trial","2785","","j","","","","","","","","","","null","red_blue_mix","5","[""images/Blue_Circle.png"",""images/Red_Circle.png"",""images/Blue_Circle.png"",""images/Red_Circle.png"",""images/Blue_Circle.png"",""images/Blue_Triangle.png"",""images/Red_Circle.png"",""images/Blue_Triangle.png"",""images/Blue_Triangle.png""]","true","[[72,11],[11,72],[4,157],[53,227],[135,249],[213,213],[249,135],[227,53],[157,4]]","false",""
"html-keyboard-response","125","2.1.0","353762","78679","break","1641","<p>Great job so far! Please rest for a few seconds before continuing.</p>
                 <p>Press the <strong>X</strong> key on your keyboard to continue.</p>","x","","","","","","","","","","","","","","","","","X"
"visual-search-circle","126","2.2.0","356062","78679","visual_search_trial","790","","f","","","","","","","","","","null","red_circle","6","[""images/Red_Triangle.png"",""images/Red_Circle.png"",""images/Red_Circle.png"",""images/Red_Circle.png"",""images/Red_Circle.png"",""images/Red_Circle.png""]","true","[[205,220],[248,103],[167,7],[44,29],[1,146],[82,242]]","true",""
"visual-search-circle","127","2.2.0","358077","78679","visual_search_trial","500","","f","","","","","","","","","","null","red_blue_mix","6","[""images/Red_Triangle.png"",""images/Red_Circle.png"",""images/Red_Circle.png""]","true","[[229,56],[13,68],[131,249]]","true",""
"visual-search-circle","128","2.2.0","361201","78679","visual_search_trial","1614","","j","","","","","","","","","","null","blue_triangle","6","[""images/Blue_Triangle.png"",""images/Blue_Triangle.png"",""images/Blue_Triangle.png"",""images/Blue_Triangle.png"",""images/Blue_Triangle.png"",""images/Blue_Triangle.png"",""images/Blue_Triangle.png"",""images/Blue_Triangle.png"",""images/Blue_Triangle.png""]","true","[[201,26],[120,0],[41,32],[1,107],[18,191],[86,243],[171,240],[235,183],[247,99]]","false",""
"visual-search-circle","129","2.2.0","363473","78679","visual_search_trial","764","","f","","","","","","","","","","null","red_circle","6","[""images/Red_Triangle.png"",""images/Red_Circle.png"",""images/Red_Circle.png"",""images/Red_Circle.png"",""images/Red_Circle.png"",""images/Red_Circle.png"",""images/Red_Circle.png"",""images/Red_Circle.png"",""images/Red_Circle.png""]","true","[[26,201],[99,247],[183,235],[240,171],[243,86],[191,18],[107,1],[32,41],[0,120]]","true",""
"visual-search-circle","130","2.2.0","366135","78679","visual_search_trial","1149","","f","","","","","","","","","","null","blue_triangle","6","[""images/Red_Triangle.png"",""images/Blue_Triangle.png"",""images/Blue_Triangle.png"",""images/Blue_Triangle.png"",""images/Blue_Triangle.png"",""images/Blue_Triangle.png"",""images/Blue_Triangle.png"",""images/Blue_Triangle.png"",""images/Blue_Triangle.png""]","true","[[208,217],[248,142],[231,58],[163,6],[78,9],[14,66],[2,150],[48,223],[129,249]]","true",""
"visual-search-circle","131","2.2.0","369040","78679","visual_search_trial","1394","","f","","","","","","","","","","null","red_circle","6","[""images/Red_Triangle.png"",""images/Red_Circle.png"",""images/Red_Circle.png""]","true","[[185,15],[0,127],[189,232]]","true",""
"visual-search-circle","132","2.2.0","371156","78679","visual_search_trial","607","","f","","","","","","","","","","null","red_blue_mix","6","[""images/Red_Triangle.png"",""images/Red_Circle.png"",""images/Red_Circle.png"",""images/Red_Circle.png"",""images/Blue_Circle.png"",""images/Blue_Circle.png"",""images/Blue_Triangle.png"",""images/Red_Circle.png"",""images/Blue_Circle.png""]","true","[[177,238],[238,177],[245,92],[196,22],[114,0],[36,36],[0,114],[22,196],[92,245]]","true",""
"visual-search-circle","133","2.2.0","373105","78679","visual_search_trial","440","","f","","","","","","","","","","null","blue_triangle","6","[""images/Red_Triangle.png"",""images/Blue_Triangle.png"",""images/Blue_Triangle.png""]","true","[[181,13],[0,131],[193,229]]","true",""
"visual-search-circle","134","2.2.0","375543","78679","visual_search_trial","923","","j","","","","","","","","","","null","red_circle","6","[""images/Red_Circle.png"",""images/Red_Circle.png"",""images/Red_Circle.png"",""images/Red_Circle.png"",""images/Red_Circle.png"",""images/Red_Circle.png"",""images/Red_Circle.png"",""images/Red_Circle.png"",""images/Red_Circle.png""]","true","[[245,157],[238,72],[177,11],[92,4],[22,53],[0,135],[36,213],[114,249],[196,227]]","false",""
"visual-search-circle","135","2.2.0","377565","78679","visual_search_trial","504","","f","","","","","","","","","","null","red_blue_mix","6","[""images/Red_Triangle.png"",""images/Blue_Circle.png"",""images/Blue_Triangle.png"",""images/Blue_Triangle.png"",""images/Blue_Triangle.png"",""images/Blue_Circle.png""]","true","[[167,7],[44,29],[1,146],[82,242],[205,220],[248,103]]","true",""
"visual-search-circle","136","2.2.0","379977","78679","visual_search_trial","906","","j","","","","","","","","","","null","blue_triangle","6","[""images/Blue_Triangle.png"",""images/Blue_Triangle.png"",""images/Blue_Triangle.png"",""images/Blue_Triangle.png"",""images/Blue_Triangle.png"",""images/Blue_Triangle.png""]","true","[[235,66],[129,0],[18,58],[14,183],[120,249],[231,191]]","false",""
"visual-search-circle","137","2.2.0","382148","78679","visual_search_trial","661","","j","","","","","","","","","","null","red_circle","6","[""images/Red_Circle.png"",""images/Red_Circle.png"",""images/Red_Circle.png""]","true","[[150,2],[6,163],[217,208]]","false",""
"visual-search-circle","138","2.2.0","384558","78679","visual_search_trial","897","","j","","","","","","","","","","null","red_blue_mix","6","[""images/Blue_Triangle.png"",""images/Red_Circle.png"",""images/Blue_Triangle.png"",""images/Red_Circle.png"",""images/Red_Circle.png"",""images/Blue_Circle.png""]","true","[[167,7],[44,29],[1,146],[82,242],[205,220],[248,103]]","false",""
"visual-search-circle","139","2.2.0","387669","78679","visual_search_trial","1597","","f","","","","","","","","","","null","blue_triangle","6","[""images/Red_Triangle.png"",""images/Blue_Triangle.png"",""images/Blue_Triangle.png"",""images/Blue_Triangle.png"",""images/Blue_Triangle.png"",""images/Blue_Triangle.png""]","true","[[2,99],[41,217],[163,243],[247,150],[208,32],[86,6]]","true",""
"visual-search-circle","140","2.2.0","390301","78679","visual_search_trial","1120","","j","","","","","","","","","","null","red_blue_mix","6","[""images/Blue_Circle.png"",""images/Blue_Triangle.png"",""images/Blue_Circle.png""]","true","[[125,250],[233,62],[16,62]]","false",""
"visual-search-circle","141","2.2.0","392613","78679","visual_search_trial","799","","j","","","","","","","","","","null","red_circle","6","[""images/Red_Circle.png"",""images/Red_Circle.png"",""images/Red_Circle.png"",""images/Red_Circle.png"",""images/Red_Circle.png"",""images/Red_Circle.png""]","true","[[245,92],[157,4],[36,36],[4,157],[92,245],[213,213]]","false",""
"visual-search-circle","142","2.2.0","394979","78679","visual_search_trial","849","","j","","","","","","","","","","null","blue_triangle","6","[""images/Blue_Triangle.png"",""images/Blue_Triangle.png"",""images/Blue_Triangle.png""]","true","[[6,163],[217,208],[150,2]]","false",""
"visual-search-circle","143","2.2.0","397304","78679","visual_search_trial","811","","j","","","","","","","","","","null","red_blue_mix","6","[""images/Blue_Circle.png"",""images/Blue_Circle.png"",""images/Red_Circle.png"",""images/Red_Circle.png"",""images/Red_Circle.png"",""images/Red_Circle.png"",""images/Blue_Triangle.png"",""images/Blue_Triangle.png"",""images/Blue_Circle.png""]","true","[[84,6],[17,60],[1,144],[42,219],[122,249],[203,222],[247,148],[234,64],[169,8]]","false",""
"visual-search-circle","144","2.2.0","399398","78679","visual_search_trial","577","","j","","","","","","","","","","null","red_circle","7","[""images/Red_Circle.png"",""images/Red_Circle.png"",""images/Red_Circle.png"",""images/Red_Circle.png"",""images/Red_Circle.png"",""images/Red_Circle.png""]","true","[[245,157],[213,36],[92,4],[4,92],[36,213],[157,245]]","false",""
"visual-search-circle","145","2.2.0","401652","78679","visual_search_trial","745","","f","","","","","","","","","","null","blue_triangle","7","[""images/Red_Triangle.png"",""images/Blue_Triangle.png"",""images/Blue_Triangle.png"",""images/Blue_Triangle.png"",""images/Blue_Triangle.png"",""images/Blue_Triangle.png"",""images/Blue_Triangle.png"",""images/Blue_Triangle.png"",""images/Blue_Triangle.png""]","true","[[250,125],[220,44],[146,1],[62,16],[7,82],[7,167],[62,233],[146,248],[220,205]]","true",""
"visual-search-circle","146","2.2.0","403856","78679","visual_search_trial","694","","j","","","","","","","","","","null","red_circle","7","[""images/Red_Circle.png"",""images/Red_Circle.png"",""images/Red_Circle.png"",""images/Red_Circle.png"",""images/Red_Circle.png"",""images/Red_Circle.png"",""images/Red_Circle.png"",""images/Red_Circle.png"",""images/Red_Circle.png""]","true","[[1,105],[17,189],[84,243],[169,241],[234,185],[247,101],[203,27],[122,0],[42,30]]","false",""
"visual-search-circle","147","2.2.0","406037","78679","visual_search_trial","669","","j","","","","","","","","","","null","red_blue_mix","7","[""images/Red_Circle.png"",""images/Red_Circle.png"",""images/Blue_Circle.png""]","true","[[205,220],[167,7],[1,146]]","false",""
"visual-search-circle","148","2.2.0","408184","78679","visual_search_trial","631","","f","","","","","","","","","","null","red_circle","7","[""images/Red_Triangle.png"",""images/Red_Circle.png"",""images/Red_Circle.png"",""images/Red_Circle.png"",""images/Red_Circle.png"",""images/Red_Circle.png"",""images/Red_Circle.png"",""images/Red_Circle.png"",""images/Red_Circle.png""]","true","[[226,198],[249,116],[214,38],[138,0],[55,21],[4,90],[10,175],[70,237],[155,246]]","true",""
"visual-search-circle","149","2.2.0","410110","78679","visual_search_trial","417","","f","","","","","","","","","","null","blue_triangle","7","[""images/Red_Triangle.png"",""images/Blue_Triangle.png"",""images/Blue_Triangle.png"",""images/Blue_Triangle.png"",""images/Blue_Triangle.png"",""images/Blue_Triangle.png""]","true","[[228,55],[116,0],[12,70],[21,194],[133,249],[237,179]]","true",""
"visual-search-circle","150","2.2.0","412759","78679","visual_search_trial","1131","","j","","","","","","","","","","null","red_blue_mix","7","[""images/Blue_Circle.png"",""images/Red_Circle.png"",""images/Red_Circle.png"",""images/Blue_Triangle.png"",""images/Blue_Circle.png"",""images/Red_Circle.png"",""images/Blue_Triangle.png"",""images/Blue_Circle.png"",""images/Red_Circle.png""]","true","[[175,239],[237,179],[246,94],[198,23],[116,0],[38,35],[0,111],[21,194],[90,245]]","false",""
"visual-search-circle","151","2.2.0","414925","78679","visual_search_trial","656","","j","","","","","","","","","","null","blue_triangle","7","[""images/Blue_Triangle.png"",""images/Blue_Triangle.png"",""images/Blue_Triangle.png"",""images/Blue_Triangle.png"",""images/Blue_Triangle.png"",""images/Blue_Triangle.png"",""images/Blue_Triangle.png"",""images/Blue_Triangle.png"",""images/Blue_Triangle.png""]","true","[[183,235],[240,171],[243,86],[191,18],[107,1],[32,41],[0,120],[26,201],[99,247]]","false",""
"visual-search-circle","152","2.2.0","416951","78679","visual_search_trial","520","","f","","","","","","","","","","null","red_blue_mix","7","[""images/Red_Triangle.png"",""images/Blue_Circle.png"",""images/Blue_Triangle.png"",""images/Blue_Circle.png"",""images/Blue_Triangle.png"",""images/Red_Circle.png"",""images/Red_Circle.png"",""images/Blue_Triangle.png"",""images/Blue_Triangle.png""]","true","[[109,0],[33,39],[0,118],[25,200],[96,246],[181,236],[240,173],[244,88],[193,20]]","true",""
"visual-search-circle","153","2.2.0","419719","78679","visual_search_trial","1253","","f","","","","","","","","","","null","red_circle","7","[""images/Red_Triangle.png"",""images/Red_Circle.png"",""images/Red_Circle.png"",""images/Red_Circle.png"",""images/Red_Circle.png"",""images/Red_Circle.png""]","true","[[217,208],[243,86],[150,2],[32,41],[6,163],[99,247]]","true",""
"visual-search-circle","154","2.2.0","422084","78679","visual_search_trial","851","","f","","","","","","","","","","null","red_blue_mix","7","[""images/Red_Triangle.png"",""images/Blue_Circle.png"",""images/Blue_Triangle.png""]","true","[[201,223],[171,9],[1,142]]","true",""
"visual-search-circle","155","2.2.0","424051","78679","visual_search_trial","460","","f","","","","","","","","","","null","red_circle","7","[""images/Red_Triangle.png"",""images/Red_Circle.png"",""images/Red_Circle.png""]","true","[[56,229],[249,131],[68,13]]","true",""
"visual-search-circle","156","2.2.0","426196","78679","visual_search_trial","637","","j","","","","","","","","","","null","blue_triangle","7","[""images/Blue_Triangle.png"",""images/Blue_Triangle.png"",""images/Blue_Triangle.png""]","true","[[241,80],[27,46],[105,248]]","false",""
"visual-search-circle","157","2.2.0","428319","78679","visual_search_trial","603","","f","","","","","","","","","","null","red_blue_mix","7","[""images/Red_Triangle.png"",""images/Blue_Circle.png"",""images/Red_Circle.png"",""images/Blue_Circle.png"",""images/Blue_Triangle.png"",""images/Blue_Circle.png""]","true","[[127,249],[234,185],[232,60],[122,0],[15,64],[17,189]]","true",""
"visual-search-circle","158","2.2.0","430207","78679","visual_search_trial","385","","f","","","","","","","","","","null","blue_triangle","7","[""images/Red_Triangle.png"",""images/Blue_Triangle.png"",""images/Blue_Triangle.png""]","true","[[4,92],[157,245],[213,36]]","true",""
"visual-search-circle","159","2.2.0","432417","78679","visual_search_trial","697","","j","","","","","","","","","","null","red_circle","7","[""images/Red_Circle.png"",""images/Red_Circle.png"",""images/Red_Circle.png""]","true","[[64,15],[60,232],[249,127]]","false",""
"visual-search-circle","160","2.2.0","434814","78679","visual_search_trial","890","","j","","","","","","","","","","null","red_blue_mix","7","[""images/Blue_Circle.png"",""images/Blue_Circle.png"",""images/Red_Circle.png"",""images/Blue_Triangle.png"",""images/Blue_Triangle.png"",""images/Blue_Circle.png""]","true","[[159,245],[246,155],[211,35],[90,4],[3,94],[38,214]]","false",""
"visual-search-circle","161","2.2.0","437415","78679","visual_search_trial","1088","","j","","","","","","","","","","null","blue_triangle","7","[""images/Blue_Triangle.png"",""images/Blue_Triangle.png"",""images/Blue_Triangle.png"",""images/Blue_Triangle.png"",""images/Blue_Triangle.png"",""images/Blue_Triangle.png""]","true","[[247,101],[165,6],[42,30],[2,148],[84,243],[207,219]]","false",""
"html-keyboard-response","162","2.1.0","439391","78679","break","1975","<p>Great job so far! Please rest for a few seconds before continuing.</p>
                 <p>Press the <strong>D</strong> key on your keyboard to continue.</p>","d","","","","","","","","","","","","","","","","","D"
"visual-search-circle","163","2.2.0","442246","78679","visual_search_trial","1335","","f","","","","","","","","","","null","blue_triangle","8","[""images/Red_Triangle.png"",""images/Blue_Triangle.png"",""images/Blue_Triangle.png"",""images/Blue_Triangle.png"",""images/Blue_Triangle.png"",""images/Blue_Triangle.png""]","true","[[131,0],[20,56],[13,181],[118,249],[229,193],[236,68]]","true",""
"visual-search-circle","164","2.2.0","445199","78679","visual_search_trial","1438","","j","","","","","","","","","","null","red_circle","8","[""images/Red_Circle.png"",""images/Red_Circle.png"",""images/Red_Circle.png"",""images/Red_Circle.png"",""images/Red_Circle.png"",""images/Red_Circle.png"",""images/Red_Circle.png"",""images/Red_Circle.png"",""images/Red_Circle.png""]","true","[[249,118],[216,39],[140,0],[56,20],[5,88],[9,173],[68,236],[153,246],[224,200]]","false",""
"visual-search-circle","165","2.2.0","449723","78679","visual_search_trial","3009","","j","","","","","","","","","","null","red_blue_mix","8","[""images/Blue_Triangle.png"",""images/Blue_Triangle.png"",""images/Blue_Circle.png"",""images/Blue_Circle.png"",""images/Blue_Triangle.png"",""images/Red_Circle.png"",""images/Red_Circle.png"",""images/Blue_Triangle.png"",""images/Red_Circle.png""]","true","[[78,240],[163,243],[231,191],[248,107],[208,32],[129,0],[48,26],[2,99],[14,183]]","false",""
"visual-search-circle","166","2.2.0","451951","78679","visual_search_trial","711","","j","","","","","","","","","","null","red_circle","8","[""images/Red_Circle.png"",""images/Red_Circle.png"",""images/Red_Circle.png""]","true","[[111,249],[239,74],[23,51]]","false",""
"visual-search-circle","167","2.2.0","454309","78679","visual_search_trial","846","","j","","","","","","","","","","null","blue_triangle","8","[""images/Blue_Triangle.png"",""images/Blue_Triangle.png"",""images/Blue_Triangle.png"",""images/Blue_Triangle.png"",""images/Blue_Triangle.png"",""images/Blue_Triangle.png""]","true","[[214,38],[94,3],[4,90],[35,211],[155,246],[245,159]]","false",""
"visual-search-circle","168","2.2.0","456717","78679","visual_search_trial","894","","j","","","","","","","","","","null","red_blue_mix","8","[""images/Blue_Triangle.png"",""images/Blue_Triangle.png"",""images/Blue_Triangle.png""]","true","[[127,0],[15,185],[232,189]]","false",""
"visual-search-circle","169","2.2.0","458801","78679","visual_search_trial","570","","f","","","","","","","","","","null","red_circle","8","[""images/Red_Triangle.png"",""images/Red_Circle.png"",""images/Red_Circle.png"",""images/Red_Circle.png"",""images/Red_Circle.png"",""images/Red_Circle.png""]","true","[[55,21],[0,133],[70,237],[194,228],[249,116],[179,12]]","true",""
"visual-search-circle","170","2.2.0","461707","78679","visual_search_trial","1397","","j","","","","","","","","","","null","blue_triangle","8","[""images/Blue_Triangle.png"",""images/Blue_Triangle.png"",""images/Blue_Triangle.png"",""images/Blue_Triangle.png"",""images/Blue_Triangle.png"",""images/Blue_Triangle.png"",""images/Blue_Triangle.png"",""images/Blue_Triangle.png"",""images/Blue_Triangle.png""]","true","[[187,233],[242,167],[242,82],[187,16],[103,1],[29,44],[0,124],[29,205],[103,248]]","false",""
"visual-search-circle","171","2.2.0","463867","78679","visual_search_trial","639","","f","","","","","","","","","","null","red_circle","8","[""images/Red_Triangle.png"",""images/Red_Circle.png"",""images/Red_Circle.png"",""images/Red_Circle.png"",""images/Red_Circle.png"",""images/Red_Circle.png"",""images/Red_Circle.png"",""images/Red_Circle.png"",""images/Red_Circle.png""]","true","[[5,161],[56,229],[140,249],[216,210],[249,131],[224,49],[153,3],[68,13],[9,76]]","true",""
"visual-search-circle","172","2.2.0","466578","78679","visual_search_trial","1200","","f","","","","","","","","","","null","red_blue_mix","8","[""images/Red_Triangle.png"",""images/Blue_Circle.png"",""images/Blue_Circle.png"",""images/Blue_Triangle.png"",""images/Blue_Circle.png"",""images/Red_Circle.png"",""images/Blue_Circle.png"",""images/Blue_Triangle.png"",""images/Red_Circle.png""]","true","[[1,142],[41,217],[120,249],[201,223],[247,150],[235,66],[171,9],[86,6],[18,58]]","true",""
"visual-search-circle","173","2.2.0","469234","78679","visual_search_trial","1151","","f","","","","","","","","","","null","red_circle","8","[""images/Red_Triangle.png"",""images/Red_Circle.png"",""images/Red_Circle.png""]","true","[[242,82],[29,44],[103,248]]","true",""
"visual-search-circle","174","2.2.0","471491","78679","visual_search_trial","753","","f","","","","","","","","","","null","red_blue_mix","8","[""images/Red_Triangle.png"",""images/Blue_Circle.png"",""images/Blue_Triangle.png""]","true","[[222,203],[144,1],[8,169]]","true",""
"visual-search-circle","175","2.2.0","473469","78679","visual_search_trial","457","","f","","","","","","","","","","null","blue_triangle","8","[""images/Red_Triangle.png"",""images/Blue_Triangle.png"",""images/Blue_Triangle.png"",""images/Blue_Triangle.png"",""images/Blue_Triangle.png"",""images/Blue_Triangle.png"",""images/Blue_Triangle.png"",""images/Blue_Triangle.png"",""images/Blue_Triangle.png""]","true","[[48,26],[2,99],[14,183],[78,240],[163,243],[231,191],[248,107],[208,32],[129,0]]","true",""
"visual-search-circle","176","2.2.0","475763","78679","visual_search_trial","785","","j","","","","","","","","","","null","red_circle","8","[""images/Red_Circle.png"",""images/Red_Circle.png"",""images/Red_Circle.png"",""images/Red_Circle.png"",""images/Red_Circle.png"",""images/Red_Circle.png""]","true","[[246,96],[161,5],[39,33],[3,153],[88,244],[210,216]]","false",""
"visual-search-circle","177","2.2.0","477831","78679","visual_search_trial","550","","f","","","","","","","","","","null","blue_triangle","8","[""images/Red_Triangle.png"",""images/Blue_Triangle.png"",""images/Blue_Triangle.png""]","true","[[88,244],[246,96],[39,33]]","true",""
"visual-search-circle","178","2.2.0","480490","78679","visual_search_trial","1146","","f","","","","","","","","","","null","red_blue_mix","8","[""images/Red_Triangle.png"",""images/Blue_Triangle.png"",""images/Blue_Circle.png"",""images/Blue_Triangle.png"",""images/Blue_Circle.png"",""images/Blue_Triangle.png""]","true","[[191,18],[66,14],[0,120],[58,231],[183,235],[249,129]]","true",""
"visual-search-circle","179","2.2.0","483719","78679","visual_search_trial","1723","","j","","","","","","","","","","null","blue_triangle","8","[""images/Blue_Triangle.png"",""images/Blue_Triangle.png"",""images/Blue_Triangle.png""]","true","[[4,92],[157,245],[213,36]]","false",""
"visual-search-circle","180","2.2.0","488046","78679","visual_search_trial","2813","","j","","","","","","","","","","null","red_blue_mix","8","[""images/Blue_Triangle.png"",""images/Red_Circle.png"",""images/Blue_Triangle.png"",""images/Blue_Circle.png"",""images/Red_Circle.png"",""images/Blue_Circle.png""]","true","[[99,247],[217,208],[243,86],[150,2],[32,41],[6,163]]","false",""
"visual-search-circle","181","2.2.0","490616","78679","visual_search_trial","1057","","j","","","","","","","","","","null","red_circle","9","[""images/Red_Circle.png"",""images/Red_Circle.png"",""images/Red_Circle.png"",""images/Red_Circle.png"",""images/Red_Circle.png"",""images/Red_Circle.png"",""images/Red_Circle.png"",""images/Red_Circle.png"",""images/Red_Circle.png""]","true","[[146,1],[62,16],[7,82],[7,167],[62,233],[146,248],[220,205],[250,125],[220,44]]","false",""
"visual-search-circle","182","2.2.0","492762","78679","visual_search_trial","636","","j","","","","","","","","","","null","blue_triangle","9","[""images/Blue_Triangle.png"",""images/Blue_Triangle.png"",""images/Blue_Triangle.png"",""images/Blue_Triangle.png"",""images/Blue_Triangle.png"",""images/Blue_Triangle.png""]","true","[[66,14],[0,120],[58,231],[183,235],[249,129],[191,18]]","false",""
"visual-search-circle","183","2.2.0","494994","78679","visual_search_trial","727","","j","","","","","","","","","","null","red_circle","9","[""images/Red_Circle.png"",""images/Red_Circle.png"",""images/Red_Circle.png""]","true","[[14,66],[129,249],[231,58]]","false",""
"visual-search-circle","184","2.2.0","497494","78679","visual_search_trial","993","","j","","","","","","","","","","null","red_blue_mix","9","[""images/Red_Triangle.png"",""images/Red_Circle.png"",""images/Blue_Circle.png""]","false","[[107,248],[240,78],[26,48]]","true",""
"visual-search-circle","185","2.2.0","499737","78679","visual_search_trial","732","","j","","","","","","","","","","null","red_circle","9","[""images/Red_Circle.png"",""images/Red_Circle.png"",""images/Red_Circle.png"",""images/Red_Circle.png"",""images/Red_Circle.png"",""images/Red_Circle.png""]","true","[[148,2],[30,42],[6,165],[101,247],[219,207],[243,84]]","false",""
"visual-search-circle","186","2.2.0","502879","78679","visual_search_trial","1631","","f","","","","","","","","","","null","blue_triangle","9","[""images/Red_Triangle.png"",""images/Blue_Triangle.png"",""images/Blue_Triangle.png""]","true","[[29,205],[242,167],[103,1]]","true",""
"visual-search-circle","187","2.2.0","504982","78679","visual_search_trial","591","","f","","","","","","","","","","null","red_circle","9","[""images/Red_Triangle.png"",""images/Red_Circle.png"",""images/Red_Circle.png"",""images/Red_Circle.png"",""images/Red_Circle.png"",""images/Red_Circle.png""]","true","[[171,240],[248,142],[201,26],[78,9],[1,107],[48,223]]","true",""
"visual-search-circle","188","2.2.0","507190","78679","visual_search_trial","696","","j","","","","","","","","","","null","blue_triangle","9","[""images/Blue_Triangle.png"",""images/Blue_Triangle.png"",""images/Blue_Triangle.png""]","true","[[229,56],[13,68],[131,249]]","false",""
"visual-search-circle","189","2.2.0","509282","78679","visual_search_trial","570","","f","","","","","","","","","","null","red_blue_mix","9","[""images/Red_Triangle.png"",""images/Blue_Triangle.png"",""images/Red_Circle.png"",""images/Blue_Circle.png"",""images/Blue_Triangle.png"",""images/Blue_Circle.png""]","true","[[140,0],[25,49],[9,173],[109,249],[224,200],[240,76]]","true",""
"visual-search-circle","190","2.2.0","511780","78679","visual_search_trial","982","","j","","","","","","","","","","null","blue_triangle","9","[""images/Blue_Triangle.png"",""images/Blue_Triangle.png"",""images/Blue_Triangle.png"",""images/Blue_Triangle.png"",""images/Blue_Triangle.png"",""images/Blue_Triangle.png"",""images/Blue_Triangle.png"",""images/Blue_Triangle.png"",""images/Blue_Triangle.png""]","true","[[32,208],[107,248],[191,231],[243,163],[240,78],[183,14],[99,2],[26,48],[0,129]]","false",""
"visual-search-circle","191","2.2.0","514625","78679","visual_search_trial","1331","","j","","","","","","","","","","null","red_blue_mix","9","[""images/Red_Circle.png"",""images/Blue_Triangle.png"",""images/Blue_Circle.png"",""images/Blue_Circle.png"",""images/Blue_Triangle.png"",""images/Red_Circle.png""]","true","[[140,249],[240,173],[224,49],[109,0],[9,76],[25,200]]","false",""
"visual-search-circle","192","2.2.0","517356","78679","visual_search_trial","1213","","f","","","","","","","","","","null","blue_triangle","9","[""images/Red_Triangle.png"",""images/Blue_Triangle.png"",""images/Blue_Triangle.png"",""images/Blue_Triangle.png"",""images/Blue_Triangle.png"",""images/Blue_Triangle.png"",""images/Blue_Triangle.png"",""images/Blue_Triangle.png"",""images/Blue_Triangle.png""]","true","[[177,11],[92,4],[22,53],[0,135],[36,213],[114,249],[196,227],[245,157],[238,72]]","true",""
"visual-search-circle","193","2.2.0","520080","78679","visual_search_trial","1206","","j","","","","","","","","","","null","red_blue_mix","9","[""images/Red_Circle.png"",""images/Red_Circle.png"",""images/Blue_Circle.png"",""images/Red_Circle.png"",""images/Red_Circle.png"",""images/Blue_Triangle.png"",""images/Blue_Triangle.png"",""images/Red_Circle.png"",""images/Blue_Circle.png""]","true","[[173,9],[88,5],[20,56],[0,140],[39,216],[118,249],[200,224],[246,153],[236,68]]","false",""
"visual-search-circle","194","2.2.0","522089","78679","visual_search_trial","496","","f","","","","","","","","","","null","red_circle","9","[""images/Red_Triangle.png"",""images/Red_Circle.png"",""images/Red_Circle.png""]","true","[[222,46],[8,80],[144,248]]","true",""
"visual-search-circle","195","2.2.0","524619","78679","visual_search_trial","1018","","j","","","","","","","","","","null","red_blue_mix","9","[""images/Red_Circle.png"",""images/Blue_Triangle.png"",""images/Blue_Triangle.png""]","true","[[88,244],[246,96],[39,33]]","false",""
"visual-search-circle","196","2.2.0","526955","78679","visual_search_trial","825","","f","","","","","","","","","","null","red_circle","9","[""images/Red_Triangle.png"",""images/Red_Circle.png"",""images/Red_Circle.png"",""images/Red_Circle.png"",""images/Red_Circle.png"",""images/Red_Circle.png"",""images/Red_Circle.png"",""images/Red_Circle.png"",""images/Red_Circle.png""]","true","[[0,140],[39,216],[118,249],[200,224],[246,153],[236,68],[173,9],[88,5],[20,56]]","true",""
"visual-search-circle","197","2.2.0","529282","78679","visual_search_trial","812","","f","","","","","","","","","","null","red_blue_mix","9","[""images/Red_Triangle.png"",""images/Blue_Triangle.png"",""images/Blue_Triangle.png"",""images/Blue_Circle.png"",""images/Blue_Triangle.png"",""images/Blue_Circle.png"",""images/Blue_Circle.png"",""images/Blue_Triangle.png"",""images/Red_Circle.png""]","true","[[245,92],[196,22],[114,0],[36,36],[0,114],[22,196],[92,245],[177,238],[238,177]]","true",""
"visual-search-circle","198","2.2.0","531403","78679","visual_search_trial","607","","f","","","","","","","","","","null","blue_triangle","9","[""images/Red_Triangle.png"",""images/Blue_Triangle.png"",""images/Blue_Triangle.png"",""images/Blue_Triangle.png"",""images/Blue_Triangle.png"",""images/Blue_Triangle.png""]","true","[[44,220],[167,242],[248,146],[205,29],[82,7],[1,103]]","true",""
"html-keyboard-response","199","2.1.0","533252","78679","break","1848","<p>Great job so far! Please rest for a few seconds before continuing.</p>
                 <p>Press the <strong>E</strong> key on your keyboard to continue.</p>","e","","","","","","","","","","","","","","","","","E"
"visual-search-circle","200","2.2.0","535671","78679","visual_search_trial","914","","j","","","","","","","","","","null","blue_triangle","10","[""images/Blue_Triangle.png"",""images/Blue_Triangle.png"",""images/Blue_Triangle.png""]","true","[[157,4],[4,157],[213,213]]","false",""
"visual-search-circle","201","2.2.0","538153","78679","visual_search_trial","973","","j","","","","","","","","","","null","red_circle","10","[""images/Red_Circle.png"",""images/Red_Circle.png"",""images/Red_Circle.png"",""images/Red_Circle.png"",""images/Red_Circle.png"",""images/Red_Circle.png""]","true","[[207,219],[247,101],[165,6],[42,30],[2,148],[84,243]]","false",""
"visual-search-circle","202","2.2.0","540736","78679","visual_search_trial","1075","","j","","","","","","","","","","null","red_blue_mix","10","[""images/Blue_Triangle.png"",""images/Blue_Triangle.png"",""images/Red_Circle.png"",""images/Blue_Circle.png"",""images/Red_Circle.png"",""images/Red_Circle.png""]","true","[[153,3],[33,39],[5,161],[96,246],[216,210],[244,88]]","false",""
"visual-search-circle","203","2.2.0","542879","78679","visual_search_trial","641","","f","","","","","","","","","","null","red_circle","10","[""images/Red_Triangle.png"",""images/Red_Circle.png"",""images/Red_Circle.png""]","true","[[247,150],[86,6],[41,217]]","true",""
"visual-search-circle","204","2.2.0","545689","78679","visual_search_trial","1292","","j","","","","","","","","","","null","red_blue_mix","10","[""images/Red_Circle.png"",""images/Blue_Circle.png"",""images/Red_Circle.png""]","true","[[203,222],[169,8],[1,144]]","false",""
"visual-search-circle","205","2.2.0","548011","78679","visual_search_trial","811","","f","","","","","","","","","","null","red_circle","10","[""images/Red_Triangle.png"",""images/Red_Circle.png"",""images/Red_Circle.png"",""images/Red_Circle.png"",""images/Red_Circle.png"",""images/Red_Circle.png""]","true","[[245,159],[214,38],[94,3],[4,90],[35,211],[155,246]]","true",""
"visual-search-circle","206","2.2.0","550893","78679","visual_search_trial","1374","","f","","","","","","","","","","null","red_blue_mix","10","[""images/Red_Triangle.png"",""images/Blue_Triangle.png"",""images/Blue_Circle.png"",""images/Blue_Triangle.png"",""images/Blue_Circle.png"",""images/Red_Circle.png"",""images/Blue_Triangle.png"",""images/Blue_Triangle.png"",""images/Blue_Triangle.png""]","true","[[55,228],[138,249],[214,211],[249,133],[226,51],[155,3],[70,12],[10,74],[4,159]]","true",""
"visual-search-circle","207","2.2.0","553196","78679","visual_search_trial","796","","f","","","","","","","","","","null","blue_triangle","10","[""images/Red_Triangle.png"",""images/Blue_Triangle.png"",""images/Blue_Triangle.png""]","true","[[17,60],[122,249],[234,64]]","true",""
"visual-search-circle","208","2.2.0","555908","78679","visual_search_trial","1206","","f","","","","","","","","","","null","red_blue_mix","10","[""images/Red_Triangle.png"",""images/Red_Circle.png"",""images/Red_Circle.png"",""images/Blue_Circle.png"",""images/Blue_Circle.png"",""images/Blue_Triangle.png""]","true","[[4,157],[92,245],[213,213],[245,92],[157,4],[36,36]]","true",""
"visual-search-circle","209","2.2.0","558799","78679","visual_search_trial","1386","","j","","","","","","","","","","null","blue_triangle","10","[""images/Blue_Triangle.png"",""images/Blue_Triangle.png"",""images/Blue_Triangle.png"",""images/Blue_Triangle.png"",""images/Blue_Triangle.png"",""images/Blue_Triangle.png"",""images/Blue_Triangle.png"",""images/Blue_Triangle.png"",""images/Blue_Triangle.png""]","true","[[219,42],[144,1],[60,17],[6,84],[8,169],[64,234],[148,247],[222,203],[249,122]]","false",""
"visual-search-circle","210","2.2.0","560970","78679","visual_search_trial","666","","j","","","","","","","","","","null","red_circle","10","[""images/Red_Circle.png"",""images/Red_Circle.png"",""images/Red_Circle.png""]","true","[[9,171],[223,201],[142,1]]","false",""
"visual-search-circle","211","2.2.0","563062","78679","visual_search_trial","587","","f","","","","","","","","","","null","red_blue_mix","10","[""images/Red_Triangle.png"",""images/Red_Circle.png"",""images/Blue_Triangle.png""]","true","[[146,1],[7,167],[220,205]]","true",""
"visual-search-circle","212","2.2.0","565743","78679","visual_search_trial","1174","","f","","","","","","","","","","null","blue_triangle","10","[""images/Red_Triangle.png"",""images/Blue_Triangle.png"",""images/Blue_Triangle.png"",""images/Blue_Triangle.png"",""images/Blue_Triangle.png"",""images/Blue_Triangle.png"",""images/Blue_Triangle.png"",""images/Blue_Triangle.png"",""images/Blue_Triangle.png""]","true","[[116,0],[38,35],[0,111],[21,194],[90,245],[175,239],[237,179],[246,94],[198,23]]","true",""
"visual-search-circle","213","2.2.0","568642","78679","visual_search_trial","1388","","j","","","","","","","","","","null","red_circle","10","[""images/Red_Circle.png"",""images/Red_Circle.png"",""images/Red_Circle.png"",""images/Red_Circle.png"",""images/Red_Circle.png"",""images/Red_Circle.png"",""images/Red_Circle.png"",""images/Red_Circle.png"",""images/Red_Circle.png""]","true","[[175,10],[90,4],[21,55],[0,138],[38,214],[116,249],[198,226],[246,155],[237,70]]","false",""
"visual-search-circle","214","2.2.0","571179","78679","visual_search_trial","1032","","f","","","","","","","","","","null","blue_triangle","10","[""images/Red_Triangle.png"",""images/Blue_Triangle.png"",""images/Blue_Triangle.png"",""images/Blue_Triangle.png"",""images/Blue_Triangle.png"",""images/Blue_Triangle.png""]","true","[[64,234],[189,232],[249,122],[185,15],[60,17],[0,127]]","true",""
"visual-search-circle","215","2.2.0","573850","78679","visual_search_trial","1154","","j","","","","","","","","","","null","red_blue_mix","10","[""images/Red_Circle.png"",""images/Red_Circle.png"",""images/Red_Circle.png"",""images/Blue_Circle.png"",""images/Blue_Triangle.png"",""images/Blue_Triangle.png"",""images/Blue_Circle.png"",""images/Red_Circle.png"",""images/Red_Circle.png""]","true","[[27,46],[0,127],[30,207],[105,248],[189,232],[243,165],[241,80],[185,15],[101,2]]","false",""
"visual-search-circle","216","2.2.0","576162","78679","visual_search_trial","801","","j","","","","","","","","","","null","blue_triangle","10","[""images/Blue_Triangle.png"",""images/Blue_Triangle.png"",""images/Blue_Triangle.png"",""images/Blue_Triangle.png"",""images/Blue_Triangle.png"",""images/Blue_Triangle.png""]","true","[[48,223],[171,240],[248,142],[201,26],[78,9],[1,107]]","false",""
"visual-search-circle","217","2.2.0","578263","78679","visual_search_trial","590","","f","","","","","","","","","","null","red_circle","10","[""images/Red_Triangle.png"",""images/Red_Circle.png"",""images/Red_Circle.png"",""images/Red_Circle.png"",""images/Red_Circle.png"",""images/Red_Circle.png"",""images/Red_Circle.png"",""images/Red_Circle.png"",""images/Red_Circle.png""]","true","[[105,1],[30,42],[0,122],[27,203],[101,247],[185,234],[241,169],[243,84],[189,17]]","true",""
"visual-search-circle","218","2.2.0","580792","78679","visual_search_trial","1025","","j","","","","","","","","","","null","red_blue_mix","11","[""images/Red_Circle.png"",""images/Blue_Triangle.png"",""images/Blue_Circle.png""]","true","[[0,120],[183,235],[191,18]]","false",""
"visual-search-circle","219","2.2.0","582878","78679","visual_search_trial","578","","f","","","","","","","","","","null","red_circle","11","[""images/Red_Triangle.png"",""images/Red_Circle.png"",""images/Red_Circle.png"",""images/Red_Circle.png"",""images/Red_Circle.png"",""images/Red_Circle.png"",""images/Red_Circle.png"",""images/Red_Circle.png"",""images/Red_Circle.png""]","true","[[15,185],[80,241],[165,243],[232,189],[248,105],[207,30],[127,0],[46,27],[2,101]]","true",""
"visual-search-circle","220","2.2.0","584960","78679","visual_search_trial","568","","f","","","","","","","","","","null","blue_triangle","11","[""images/Red_Triangle.png"",""images/Blue_Triangle.png"",""images/Blue_Triangle.png""]","true","[[240,173],[109,0],[25,200]]","true",""
"visual-search-circle","221","2.2.0","587464","78679","visual_search_trial","999","","f","","","","","","","","","","null","red_blue_mix","11","[""images/Red_Triangle.png"",""images/Blue_Triangle.png"",""images/Red_Circle.png""]","true","[[68,236],[249,118],[56,20]]","true",""
"visual-search-circle","222","2.2.0","589439","78679","visual_search_trial","462","","f","","","","","","","","","","null","red_circle","11","[""images/Red_Triangle.png"",""images/Red_Circle.png"",""images/Red_Circle.png"",""images/Red_Circle.png"",""images/Red_Circle.png"",""images/Red_Circle.png""]","true","[[185,15],[60,17],[0,127],[64,234],[189,232],[249,122]]","true",""
"visual-search-circle","223","2.2.0","591840","78679","visual_search_trial","895","","j","","","","","","","","","","null","red_blue_mix","11","[""images/Red_Circle.png"",""images/Red_Circle.png"",""images/Blue_Triangle.png"",""images/Red_Circle.png"",""images/Red_Circle.png"",""images/Blue_Circle.png""]","true","[[248,144],[203,27],[80,8],[1,105],[46,222],[169,241]]","false",""
"visual-search-circle","224","2.2.0","594055","78679","visual_search_trial","701","","j","","","","","","","","","","null","red_circle","11","[""images/Red_Circle.png"",""images/Red_Circle.png"",""images/Red_Circle.png"",""images/Red_Circle.png"",""images/Red_Circle.png"",""images/Red_Circle.png"",""images/Red_Circle.png"",""images/Red_Circle.png"",""images/Red_Circle.png""]","true","[[0,138],[38,214],[116,249],[198,226],[246,155],[237,70],[175,10],[90,4],[21,55]]","false",""
"visual-search-circle","225","2.2.0","596106","78679","visual_search_trial","542","","f","","","","","","","","","","null","red_blue_mix","11","[""images/Red_Triangle.png"",""images/Blue_Circle.png"",""images/Red_Circle.png"",""images/Blue_Triangle.png"",""images/Blue_Triangle.png"",""images/Red_Circle.png"",""images/Red_Circle.png"",""images/Blue_Circle.png"",""images/Red_Circle.png""]","true","[[84,6],[17,60],[1,144],[42,219],[122,249],[203,222],[247,148],[234,64],[169,8]]","true",""
"visual-search-circle","226","2.2.0","598435","78679","visual_search_trial","813","","j","","","","","","","","","","null","blue_triangle","11","[""images/Blue_Triangle.png"",""images/Blue_Triangle.png"",""images/Blue_Triangle.png"",""images/Blue_Triangle.png"",""images/Blue_Triangle.png"",""images/Blue_Triangle.png"",""images/Blue_Triangle.png"",""images/Blue_Triangle.png"",""images/Blue_Triangle.png""]","true","[[0,140],[39,216],[118,249],[200,224],[246,153],[236,68],[173,9],[88,5],[20,56]]","false",""
"visual-search-circle","227","2.2.0","600632","78679","visual_search_trial","686","","f","","","","","","","","","","null","red_blue_mix","11","[""images/Red_Triangle.png"",""images/Red_Circle.png"",""images/Blue_Circle.png"",""images/Blue_Circle.png"",""images/Blue_Circle.png"",""images/Red_Circle.png""]","true","[[235,183],[231,58],[120,0],[14,66],[18,191],[129,249]]","true",""
"visual-search-circle","228","2.2.0","603105","78679","visual_search_trial","955","","f","","","","","","","","","","null","blue_triangle","11","[""images/Red_Triangle.png"",""images/Blue_Triangle.png"",""images/Blue_Triangle.png"",""images/Blue_Triangle.png"",""images/Blue_Triangle.png"",""images/Blue_Triangle.png"",""images/Blue_Triangle.png"",""images/Blue_Triangle.png"",""images/Blue_Triangle.png""]","true","[[242,167],[242,82],[187,16],[103,1],[29,44],[0,124],[29,205],[103,248],[187,233]]","true",""
"visual-search-circle","229","2.2.0","605436","78679","visual_search_trial","814","","j","","","","","","","","","","null","red_circle","11","[""images/Red_Circle.png"",""images/Red_Circle.png"",""images/Red_Circle.png"",""images/Red_Circle.png"",""images/Red_Circle.png"",""images/Red_Circle.png""]","true","[[133,0],[21,55],[12,179],[116,249],[228,194],[237,70]]","false",""
"visual-search-circle","230","2.2.0","607361","78679","visual_search_trial","413","","f","","","","","","","","","","null","blue_triangle","11","[""images/Red_Triangle.png"",""images/Blue_Triangle.png"",""images/Blue_Triangle.png"",""images/Blue_Triangle.png"",""images/Blue_Triangle.png"",""images/Blue_Triangle.png""]","true","[[210,33],[88,5],[3,96],[39,216],[161,244],[246,153]]","true",""
"visual-search-circle","231","2.2.0","609720","78679","visual_search_trial","849","","j","","","","","","","","","","null","red_circle","11","[""images/Red_Circle.png"",""images/Red_Circle.png"",""images/Red_Circle.png""]","true","[[42,30],[84,243],[247,101]]","false",""
"visual-search-circle","232","2.2.0","611989","78679","visual_search_trial","764","","j","","","","","","","","","","null","blue_triangle","11","[""images/Blue_Triangle.png"",""images/Blue_Triangle.png"",""images/Blue_Triangle.png"",""images/Blue_Triangle.png"",""images/Blue_Triangle.png"",""images/Blue_Triangle.png""]","true","[[20,193],[131,249],[236,181],[229,56],[118,0],[13,68]]","false",""
"visual-search-circle","233","2.2.0","614559","78679","visual_search_trial","1061","","j","","","","","","","","","","null","red_blue_mix","11","[""images/Blue_Circle.png"",""images/Red_Circle.png"",""images/Red_Circle.png"",""images/Blue_Circle.png"",""images/Blue_Circle.png"",""images/Blue_Triangle.png"",""images/Blue_Triangle.png"",""images/Blue_Triangle.png"",""images/Blue_Circle.png""]","true","[[249,114],[213,36],[135,0],[53,22],[4,92],[11,177],[72,238],[157,245],[227,196]]","false",""
"visual-search-circle","234","2.2.0","616541","78679","visual_search_trial","472","","f","","","","","","","","","","null","red_circle","11","[""images/Red_Triangle.png"",""images/Red_Circle.png"",""images/Red_Circle.png""]","true","[[0,118],[181,236],[193,20]]","true",""
