"trial_type","trial_index","plugin_version","time_elapsed","sona_id","phase","rt","stimulus","response","consented","required_key","view_history","question_order","success","timeout","failed_images","failed_audio","failed_video","set_size","distractor_type","block","stimuli_list","correct","locations","target_present","break_key"
"pavlovia","0","null","1375","78848","","","","","","","","","","","","","","","","","","","","",""
"html-button-response","1","2.1.0","8713","78848","informed_consent","7333","
    <div style=""max-width: 900px; margin: 0 auto; padding: 20px; text-align: left; line-height: 1.6;"">
      <h1 style=""text-align: center; color: #333; font-size: 24px; margin-bottom: 10px; font-weight: bold;"">
        INFORMED CONSENT INFORMATION
      </h1>
      <h2 style=""text-align: center; color: #333; font-size: 22px; margin-bottom: 20px; font-weight: bold;"">
        FOR RESEARCH PARTICIPATION
      </h2>
      
      <p style=""margin-bottom: 10px;""><strong>Study Title:</strong> The Effects of Mindfulness and Attention on Life Satisfaction and Memory</p>
      <p style=""margin-bottom: 10px;""><strong>Principal Investigator:</strong> Ella Bremmer</p>
      <p style=""margin-bottom: 10px;""><strong>Co-Principal Investigator:</strong> Dr. Gregory Cox</p>
      <p style=""margin-bottom: 20px;""><strong>IRB Study Number:</strong></p>

      <p style=""margin-bottom: 15px;"">I am a student at the University at Albany, in the Department of Psychology. I am planning to conduct a research study, which I invite you to take part in.</p>
      
      <p style=""margin-bottom: 25px;"">This form has important information about the reasons for doing this study, what we will ask you to do, and the way we would like to use the information we collect about you.</p>

      <h3 style=""color: #333; font-size: 18px; margin-top: 25px; margin-bottom: 10px; font-weight: bold;"">
        Why are you doing this study?
      </h3>
      <p style=""margin-bottom: 15px;"">You are being asked to participate in a research study that aims to understand if there is a relationship between mindfulness, the ability to pay attention, and life satisfaction.</p>
      
      <p style=""margin-bottom: 25px;"">The purpose of this study is to investigate if having better control over one's attention influences overall life satisfaction. Your participation will help us better understand if mindfulness and attention do have a significant effect on life satisfaction (i.e., how people feel about their lives overall). Then you will be asked to perform a conjunction visual search task to test your capacity to direct your attention over a sustained period.</p>

      <h3 style=""color: #333; font-size: 18px; margin-top: 25px; margin-bottom: 10px; font-weight: bold;"">
        Why am I eligible to participate in this study?
      </h3>
      <p style=""margin-bottom: 25px;"">You are eligible to participate because you are a student at UAlbany, are at least 18 years old, and are proficient in English.</p>

      <h3 style=""color: #333; font-size: 18px; margin-top: 25px; margin-bottom: 10px; font-weight: bold;"">
        What will I do if I choose to be in this study?
      </h3>
      <p style=""margin-bottom: 10px;"">If you choose to take part in our study, you will do the following:</p>
      <p style=""margin-bottom: 8px; margin-left: 20px;"">1. Read and agree to the informed consent.</p>
      <p style=""margin-bottom: 8px; margin-left: 40px;"">a. If you choose not to agree to the informed consent, you will be taken back to the SONA site.</p>
      <p style=""margin-bottom: 8px; margin-left: 20px;"">2. Complete a demographic questionnaire that asks about your age, English proficiency, gender, and race.</p>
      <p style=""margin-bottom: 8px; margin-left: 20px;"">3. Read instructions for the visual search task, which asks you to indicate if a target (a red triangle) is present among various other colored shapes. You should press the ""F"" key if a red triangle is present, or the ""J"" key if the target is absent.</p>
      <p style=""margin-bottom: 8px; margin-left: 20px;"">4. You will be asked to respond to 270 visual search trials, whith the opportunity to take short breaks as you go</p>
      <p style=""margin-bottom: 8px; margin-left: 20px;"">5. You will complete the Mindfulness Attention Awareness Scale (MAAS), the Satisfaction With Life Scale (SWLS), and the Big Five Inventory.</p>
      <p style=""margin-bottom: 25px; margin-left: 20px;"">6.	After all questionnaires are completed, participants will be thanked for their time and will be provided the study debriefing. Following the debriefing, you will be sent back to the SONA research site.</p>

      <h3 style=""color: #333; font-size: 18px; margin-top: 25px; margin-bottom: 10px; font-weight: bold;"">
        For how long will I participate?
      </h3>
      <p style=""margin-bottom: 25px;"">This study is a single online session that you can complete on a computer. The study can be completed in less than 30 minutes but could require as long as 45 minutes to complete.</p>

      <h3 style=""color: #333; font-size: 18px; margin-top: 25px; margin-bottom: 10px; font-weight: bold;"">
        Where will I need to go to participate?
      </h3>
      <p style=""margin-bottom: 25px;"">All study procedures will take place online and can be completed wherever you have internet connection.</p>

      <h3 style=""color: #333; font-size: 18px; margin-top: 25px; margin-bottom: 10px; font-weight: bold;"">
        Are there any costs I should be aware of?
      </h3>
      <p style=""margin-bottom: 25px;"">Participation is not expected to incur cost to participants. Free internet access is available anywhere on campus and in the university library.</p>

      <h3 style=""color: #333; font-size: 18px; margin-top: 25px; margin-bottom: 10px; font-weight: bold;"">
        What are the possible risks or discomforts?
      </h3>
      <p style=""margin-bottom: 15px;"">As with all research, there is a chance that confidentiality of the information we collect from you could be breached – we will take steps to minimize this risk, as discussed in more detail below.</p>
      
      <p style=""margin-bottom: 25px;"">The risks associated with participating in this study are minimal; however, you may experience mild discomfort when reflecting on your mindfulness or life satisfaction when answering questionnaires in the study. To help minimize this, you can withdraw from the study at any time without any consequences. The study will take place online, and you will have the opportunity to take breaks while completing the survey to reduce the risk of eye strain associated with the use of electronic devices.</p>

      <h3 style=""color: #333; font-size: 18px; margin-top: 25px; margin-bottom: 10px; font-weight: bold;"">
        What are the possible benefits for me or others?
      </h3>
      <p style=""margin-bottom: 25px;"">While there are no direct personal benefits to participants of this study, you may find value in reflecting on your mindfulness, attention, and its impact on life satisfaction by completing this survey. The data you contribute may help advance society's understanding of how mindfulness and attention relate to overall well-being, potentially informing future programs or interventions aimed at improving student mental health, attention, and life satisfaction.</p>

      <h3 style=""color: #333; font-size: 18px; margin-top: 25px; margin-bottom: 10px; font-weight: bold;"">
        Will I receive compensation for my participation?
      </h3>
      <p style=""margin-bottom: 25px;"">SONA partial class credit will be awarded via the Psychology Department SONA research pool after you complete the survey in its entirety. Participants who withdraw before completing the survey will not receive partial credit. You will not receive monetary compensation for your participation in this study.</p>

      <h3 style=""color: #333; font-size: 18px; margin-top: 25px; margin-bottom: 10px; font-weight: bold;"">
        How will you protect the information you collect about me, and how will that information be shared?
      </h3>
      <p style=""margin-bottom: 15px;"">Results of this study may be used in publications and presentations. Your data will be handled as confidentially as possible, and no identifiable information will be collected to link your data back to you. If results of this study are published or presented, only de-identified summaries of data will be used.</p>
      
      <p style=""margin-bottom: 25px;"">To minimize the risks to confidentiality, all data will be collected anonymously via Pavlovia.org which uses encryption to protect information (https://pavlovia.org/docs/home/ethics). Only the student researcher (Ella Bremmer), mentor (Pierce Johnson), and faculty advisor (Gregory Cox) will have password-protected access to the data. Data will be stored on secure, university approved computers.</p>

      <h3 style=""color: #333; font-size: 18px; margin-top: 25px; margin-bottom: 10px; font-weight: bold;"">
        Will my data be used in future research?
      </h3>
      <p style=""margin-bottom: 25px;"">No personal identifiers will be collected in the data you provide us. Data will not be used in future research, and will be deleted after the required retention period.</p>

      <h3 style=""color: #333; font-size: 18px; margin-top: 25px; margin-bottom: 10px; font-weight: bold;"">
        What are my rights as a research participant?
      </h3>
      <p style=""margin-bottom: 15px;"">Participation in this study is voluntary. You do not have to answer any question you do not want to answer. If at any time and for any reason, you would prefer not to participate in this study, please feel free not to. If at any time you would like to stop participating, you are welcome to stop. You can take a break or stop altogether. You may withdraw from this study at any time, and you will not be penalized in any way for deciding to stop participation.</p>
      
      <p style=""margin-bottom: 25px;"">If you decide to withdraw from this study, any information collected from you before withdrawing will not be used, and your data will be deleted.</p>

      <h3 style=""color: #333; font-size: 18px; margin-top: 25px; margin-bottom: 10px; font-weight: bold;"">
        What if I am a University at Albany student or employee?
      </h3>
      <p style=""margin-bottom: 25px;"">You may choose not to participate or to stop participating in this research at any time. This will not affect your class standing, grades, employment, or any other aspects of your relationship with the University at Albany.</p>

      <h3 style=""color: #333; font-size: 18px; margin-top: 25px; margin-bottom: 10px; font-weight: bold;"">
        Who can I contact if I have questions or concerns about this research study?
      </h3>
      <p style=""margin-bottom: 15px;"">If you have questions, please feel free to stop and email the investigator, Ella Bremmer (ebremmer@albany.edu) or advisors, Pierce Johnson (pjohnson4@albany.edu) and Dr. Greg Cox (gecox@albany.edu). If you have questions later, you may also contact the researchers.</p>
      
      <p style=""margin-bottom: 10px;"">If you have any questions about your rights as a participant in this research, you can contact the following office at the University at Albany:</p>
      
      <p style=""margin-bottom: 5px; margin-left: 20px;"">Institutional Review Board</p>
      <p style=""margin-bottom: 5px; margin-left: 20px;"">University at Albany</p>
      <p style=""margin-bottom: 5px; margin-left: 20px;"">Office of Regulatory and Research Compliance</p>
      <p style=""margin-bottom: 5px; margin-left: 20px;"">1400 Washington Ave, Biology 227</p>
      <p style=""margin-bottom: 5px; margin-left: 20px;"">Albany, NY 12222</p>
      <p style=""margin-bottom: 5px; margin-left: 20px;"">Phone: 1-866-857-5459</p>
      <p style=""margin-bottom: 25px; margin-left: 20px;"">Email: rco@albany.edu</p>

      <h3 style=""color: #333; font-size: 18px; margin-top: 30px; margin-bottom: 10px; font-weight: bold;"">
        Consent
      </h3>
      <p style=""margin-bottom: 20px;"">I have read this form and the research study has been explained to me. I have been given the opportunity to ask questions and my questions have been answered. If I have additional questions, I have been told whom to contact. I agree to participate in the research study described above. I understand that I have the opportunity to download and save a copy of this form for my records.</p>

      <div style=""background-color: #f9f9f9; border: 2px solid #4CAF50; border-radius: 5px; padding: 20px; margin-top: 20px; margin-bottom: 20px;"">
        <p style=""margin-bottom: 15px; font-weight: bold;"">To save a copy of this consent form for your records, press Ctrl+P (Windows/Linux) or Cmd+P (Mac) and select ""Save as PDF"".</p>
        <p style=""margin-bottom: 0; font-weight: bold;"">By clicking ""I Agree"" below, I confirm that I agree to participate in the research study described above, and that doing so serves as my written signature consenting to take part in the study.</p>
      </div>
    </div>
  ","0","true","","","","","","","","","","","","","","","",""
"instructions","3","2.1.0","10975","78848","intro_instructions","2260","","","","j","[{""page_index"":0,""viewing_time"":2260}]","","","","","","","","","","","","","",""
"html-keyboard-response","4","2.1.0","12990","78848","intermediate_slide_demo","null","<p style=""font-size:4vw"">Demographic Questionnaire</p>","null","","","","","","","","","","","","","","","","",""
"survey-multi-choice","5","2.1.0","17761","78848","demographics_english","4767","","{""english"":""Strongly disagree""}","","","","[0]","","","","","","","","","","","","",""
"html-button-response","6","2.1.0","22933","78848","","null","<p style=""font-size:1.5vw"">Thank you for your interest in this study. However, participation is restricted to individuals who are fluent in English.<br><br>You will not receive SONA credit for this incomplete session.<br><br>Redirecting back to SONA...</p>","null","","","","","","","","","","","","","","","","",""
"survey-text","7","2.1.0","48255","78848","demographics_age","23351","","{""age"":""18""}","","","","","","","","","","","","","","","","",""
"survey-multi-select","9","2.1.0","51264","78848","demographics_gender","3001","","{""gender"":[""Non-binary/gender non-conforming""]}","","","","[0]","","","","","","","","","","","","",""
"survey-multi-choice","11","2.1.0","53791","78848","demographics_race","2524","","{""race"":""Black or African American""}","","","","[0]","","","","","","","","","","","","",""
"html-keyboard-response","12","2.1.0","55798","78848","intermediate_slide_VS","null","<p style=""font-size:4vw"">Visual Search Task</p>","null","","","","","","","","","","","","","","","","",""
"preload","13","2.1.0","56182","78848","image_preload","","","","","","","","true","false","[]","[]","[]","","","","","","","",""
"html-button-response","14","2.1.0","57491","78848","vs_instructions","1307","<p>On the following screens, you will see a series of colored shapes (triangles, squares, and circles) appear.</p>
    <p>Please Press 'F' if there <strong>is</strong> a red triangle among the shapes you see.</p>
    <p>Press 'J' if there is <strong>not</strong> a red triangle among the shapes you see.</p>","0","","","","","","","","","","","","","","","","",""
"visual-search-circle","15","2.2.0","63206","78848","visual_search_trial","4204","","f","","","","","","","","","","null","red_blue_mix","0","[""images/Red_Triangle.png"",""images/Blue_Triangle.png"",""images/Blue_Triangle.png"",""images/Blue_Triangle.png"",""images/Blue_Triangle.png"",""images/Blue_Triangle.png""]","true","[[94,246],[214,211],[245,90],[155,3],[35,38],[4,159]]","true",""
"visual-search-circle","16","2.2.0","66247","78848","visual_search_trial","1528","","j","","","","","","","","","","null","red_circle","0","[""images/Red_Circle.png"",""images/Red_Circle.png"",""images/Red_Circle.png"",""images/Red_Circle.png"",""images/Red_Circle.png"",""images/Red_Circle.png""]","true","[[1,105],[46,222],[169,241],[248,144],[203,27],[80,8]]","false",""
"visual-search-circle","17","2.2.0","76782","78848","visual_search_trial","9031","","f","","","","","","","","","","null","blue_triangle","0","[""images/Red_Triangle.png"",""images/Blue_Triangle.png"",""images/Blue_Triangle.png""]","true","[[94,246],[245,90],[35,38]]","true",""
"visual-search-circle","18","2.2.0","79389","78848","visual_search_trial","1089","","f","","","","","","","","","","null","red_blue_mix","0","[""images/Red_Triangle.png"",""images/Blue_Triangle.png"",""images/Blue_Triangle.png""]","true","[[109,0],[25,200],[240,173]]","true",""
"visual-search-circle","19","2.2.0","82163","78848","visual_search_trial","1263","","j","","","","","","","","","","null","red_circle","0","[""images/Red_Circle.png"",""images/Red_Circle.png"",""images/Red_Circle.png"",""images/Red_Circle.png"",""images/Red_Circle.png"",""images/Red_Circle.png"",""images/Red_Circle.png"",""images/Red_Circle.png"",""images/Red_Circle.png""]","true","[[32,41],[0,120],[26,201],[99,247],[183,235],[240,171],[243,86],[191,18],[107,1]]","false",""
"visual-search-circle","20","2.2.0","85110","78848","visual_search_trial","1432","","j","","","","","","","","","","null","red_blue_mix","0","[""images/Blue_Triangle.png"",""images/Red_Circle.png"",""images/Blue_Triangle.png""]","true","[[62,233],[250,125],[62,16]]","false",""
"visual-search-circle","21","2.2.0","87540","78848","visual_search_trial","922","","f","","","","","","","","","","null","blue_triangle","0","[""images/Red_Triangle.png"",""images/Blue_Triangle.png"",""images/Blue_Triangle.png"",""images/Blue_Triangle.png"",""images/Blue_Triangle.png"",""images/Blue_Triangle.png"",""images/Blue_Triangle.png"",""images/Blue_Triangle.png"",""images/Blue_Triangle.png""]","true","[[201,26],[120,0],[41,32],[1,107],[18,191],[86,243],[171,240],[235,183],[247,99]]","true",""
"visual-search-circle","22","2.2.0","90153","78848","visual_search_trial","1106","","f","","","","","","","","","","null","red_blue_mix","0","[""images/Red_Triangle.png"",""images/Red_Circle.png"",""images/Red_Circle.png"",""images/Blue_Triangle.png"",""images/Blue_Circle.png"",""images/Blue_Circle.png"",""images/Red_Circle.png"",""images/Blue_Circle.png"",""images/Red_Circle.png""]","true","[[7,167],[62,233],[146,248],[220,205],[250,125],[220,44],[146,1],[62,16],[7,82]]","true",""
"visual-search-circle","23","2.2.0","92518","78848","visual_search_trial","846","","f","","","","","","","","","","null","red_circle","0","[""images/Red_Triangle.png"",""images/Red_Circle.png"",""images/Red_Circle.png"",""images/Red_Circle.png"",""images/Red_Circle.png"",""images/Red_Circle.png"",""images/Red_Circle.png"",""images/Red_Circle.png"",""images/Red_Circle.png""]","true","[[88,5],[20,56],[0,140],[39,216],[118,249],[200,224],[246,153],[236,68],[173,9]]","true",""
"visual-search-circle","24","2.2.0","117214","78848","visual_search_trial","23184","","j","","","","","","","","","","null","blue_triangle","0","[""images/Blue_Triangle.png"",""images/Blue_Triangle.png"",""images/Blue_Triangle.png"",""images/Blue_Triangle.png"",""images/Blue_Triangle.png"",""images/Blue_Triangle.png"",""images/Blue_Triangle.png"",""images/Blue_Triangle.png"",""images/Blue_Triangle.png""]","true","[[92,4],[22,53],[0,135],[36,213],[114,249],[196,227],[245,157],[238,72],[177,11]]","false",""
"visual-search-circle","25","2.2.0","119540","78848","visual_search_trial","818","","f","","","","","","","","","","null","red_circle","0","[""images/Red_Triangle.png"",""images/Red_Circle.png"",""images/Red_Circle.png"",""images/Red_Circle.png"",""images/Red_Circle.png"",""images/Red_Circle.png""]","true","[[10,175],[111,249],[226,198],[239,74],[138,0],[23,51]]","true",""
"visual-search-circle","26","2.2.0","122239","78848","visual_search_trial","1189","","j","","","","","","","","","","null","blue_triangle","0","[""images/Blue_Triangle.png"",""images/Blue_Triangle.png"",""images/Blue_Triangle.png"",""images/Blue_Triangle.png"",""images/Blue_Triangle.png"",""images/Blue_Triangle.png""]","true","[[66,235],[191,231],[249,120],[183,14],[58,18],[0,129]]","false",""
"visual-search-circle","27","2.2.0","125567","78848","visual_search_trial","1813","","j","","","","","","","","","","null","red_blue_mix","0","[""images/Red_Circle.png"",""images/Red_Circle.png"",""images/Blue_Triangle.png"",""images/Red_Circle.png"",""images/Blue_Triangle.png"",""images/Blue_Circle.png"",""images/Blue_Triangle.png"",""images/Red_Circle.png"",""images/Blue_Circle.png""]","true","[[14,66],[2,150],[48,223],[129,249],[208,217],[248,142],[231,58],[163,6],[78,9]]","false",""
"visual-search-circle","28","2.2.0","127870","78848","visual_search_trial","790","","f","","","","","","","","","","null","blue_triangle","0","[""images/Red_Triangle.png"",""images/Blue_Triangle.png"",""images/Blue_Triangle.png"",""images/Blue_Triangle.png"",""images/Blue_Triangle.png"",""images/Blue_Triangle.png""]","true","[[38,214],[159,245],[246,155],[211,35],[90,4],[3,94]]","true",""
"visual-search-circle","29","2.2.0","130190","78848","visual_search_trial","802","","f","","","","","","","","","","null","red_circle","0","[""images/Red_Triangle.png"",""images/Red_Circle.png"",""images/Red_Circle.png""]","true","[[64,234],[249,122],[60,17]]","true",""
"visual-search-circle","30","2.2.0","133543","78848","visual_search_trial","1836","","j","","","","","","","","","","null","red_blue_mix","0","[""images/Blue_Triangle.png"",""images/Red_Circle.png"",""images/Red_Circle.png"",""images/Red_Circle.png"",""images/Blue_Circle.png"",""images/Blue_Triangle.png""]","true","[[48,26],[1,142],[78,240],[201,223],[248,107],[171,9]]","false",""
"visual-search-circle","31","2.2.0","135587","78848","visual_search_trial","539","","j","","","","","","","","","","null","red_circle","0","[""images/Red_Circle.png"",""images/Red_Circle.png"",""images/Red_Circle.png""]","true","[[189,17],[0,122],[185,234]]","false",""
"visual-search-circle","32","2.2.0","137832","78848","visual_search_trial","736","","j","","","","","","","","","","null","blue_triangle","0","[""images/Blue_Triangle.png"",""images/Blue_Triangle.png"",""images/Blue_Triangle.png""]","true","[[78,9],[48,223],[248,142]]","false",""
"visual-search-circle","33","2.2.0","139972","78848","visual_search_trial","620","","j","","","","","","","","","","null","blue_triangle","1","[""images/Blue_Triangle.png"",""images/Blue_Triangle.png"",""images/Blue_Triangle.png"",""images/Blue_Triangle.png"",""images/Blue_Triangle.png"",""images/Blue_Triangle.png"",""images/Blue_Triangle.png"",""images/Blue_Triangle.png"",""images/Blue_Triangle.png""]","true","[[49,25],[3,96],[13,181],[76,240],[161,244],[229,193],[249,109],[210,33],[131,0]]","false",""
"visual-search-circle","34","2.2.0","142053","78848","visual_search_trial","566","","j","","","","","","","","","","null","red_blue_mix","1","[""images/Red_Triangle.png"",""images/Blue_Circle.png"",""images/Red_Circle.png"",""images/Blue_Triangle.png"",""images/Red_Circle.png"",""images/Blue_Triangle.png""]","false","[[138,0],[23,51],[10,175],[111,249],[226,198],[239,74]]","true",""
"visual-search-circle","35","2.2.0","144566","78848","visual_search_trial","1005","","f","","","","","","","","","","null","red_circle","1","[""images/Red_Triangle.png"",""images/Red_Circle.png"",""images/Red_Circle.png"",""images/Red_Circle.png"",""images/Red_Circle.png"",""images/Red_Circle.png"",""images/Red_Circle.png"",""images/Red_Circle.png"",""images/Red_Circle.png""]","true","[[161,244],[229,193],[249,109],[210,33],[131,0],[49,25],[3,96],[13,181],[76,240]]","true",""
"visual-search-circle","36","2.2.0","146904","78848","visual_search_trial","829","","f","","","","","","","","","","null","blue_triangle","1","[""images/Red_Triangle.png"",""images/Blue_Triangle.png"",""images/Blue_Triangle.png"",""images/Blue_Triangle.png"",""images/Blue_Triangle.png"",""images/Blue_Triangle.png""]","true","[[74,239],[198,226],[249,111],[175,10],[51,23],[0,138]]","true",""
"visual-search-circle","37","2.2.0","151003","78848","visual_search_trial","2594","","j","","","","","","","","","","null","red_blue_mix","1","[""images/Blue_Triangle.png"",""images/Blue_Circle.png"",""images/Blue_Triangle.png"",""images/Red_Circle.png"",""images/Blue_Triangle.png"",""images/Red_Circle.png""]","true","[[0,127],[64,234],[189,232],[249,122],[185,15],[60,17]]","false",""
"visual-search-circle","38","2.2.0","153494","78848","visual_search_trial","986","","j","","","","","","","","","","null","red_circle","1","[""images/Red_Circle.png"",""images/Red_Circle.png"",""images/Red_Circle.png""]","true","[[241,80],[27,46],[105,248]]","false",""
"visual-search-circle","39","2.2.0","155561","78848","visual_search_trial","561","","j","","","","","","","","","","null","blue_triangle","1","[""images/Blue_Triangle.png"",""images/Blue_Triangle.png"",""images/Blue_Triangle.png"",""images/Blue_Triangle.png"",""images/Blue_Triangle.png"",""images/Blue_Triangle.png""]","true","[[191,231],[249,120],[183,14],[58,18],[0,129],[66,235]]","false",""
"visual-search-circle","40","2.2.0","157650","78848","visual_search_trial","572","","j","","","","","","","","","","null","red_blue_mix","1","[""images/Blue_Circle.png"",""images/Blue_Circle.png"",""images/Red_Circle.png""]","true","[[20,193],[236,181],[118,0]]","false",""
"visual-search-circle","41","2.2.0","159738","78848","visual_search_trial","576","","j","","","","","","","","","","null","red_circle","1","[""images/Red_Circle.png"",""images/Red_Circle.png"",""images/Red_Circle.png"",""images/Red_Circle.png"",""images/Red_Circle.png"",""images/Red_Circle.png""]","true","[[82,242],[205,220],[248,103],[167,7],[44,29],[1,146]]","false",""
"visual-search-circle","42","2.2.0","162795","78848","visual_search_trial","1552","","j","","","","","","","","","","null","red_blue_mix","1","[""images/Red_Circle.png"",""images/Blue_Triangle.png"",""images/Red_Circle.png"",""images/Red_Circle.png"",""images/Blue_Circle.png"",""images/Blue_Circle.png"",""images/Blue_Circle.png"",""images/Red_Circle.png"",""images/Red_Circle.png""]","true","[[2,99],[14,183],[78,240],[163,243],[231,191],[248,107],[208,32],[129,0],[48,26]]","false",""
"visual-search-circle","43","2.2.0","165064","78848","visual_search_trial","757","","j","","","","","","","","","","null","blue_triangle","1","[""images/Blue_Triangle.png"",""images/Blue_Triangle.png"",""images/Blue_Triangle.png""]","true","[[248,144],[80,8],[46,222]]","false",""
"visual-search-circle","44","2.2.0","167278","78848","visual_search_trial","697","","j","","","","","","","","","","null","red_circle","1","[""images/Red_Circle.png"",""images/Red_Circle.png"",""images/Red_Circle.png"",""images/Red_Circle.png"",""images/Red_Circle.png"",""images/Red_Circle.png"",""images/Red_Circle.png"",""images/Red_Circle.png"",""images/Red_Circle.png""]","true","[[18,191],[86,243],[171,240],[235,183],[247,99],[201,26],[120,0],[41,32],[1,107]]","false",""
"visual-search-circle","45","2.2.0","169772","78848","visual_search_trial","986","","f","","","","","","","","","","null","red_blue_mix","1","[""images/Red_Triangle.png"",""images/Blue_Triangle.png"",""images/Blue_Triangle.png"",""images/Blue_Circle.png"",""images/Blue_Circle.png"",""images/Red_Circle.png"",""images/Blue_Triangle.png"",""images/Red_Circle.png"",""images/Red_Circle.png""]","true","[[90,245],[175,239],[237,179],[246,94],[198,23],[116,0],[38,35],[0,111],[21,194]]","true",""
"visual-search-circle","46","2.2.0","172023","78848","visual_search_trial","738","","f","","","","","","","","","","null","red_circle","1","[""images/Red_Triangle.png"",""images/Red_Circle.png"",""images/Red_Circle.png""]","true","[[0,122],[185,234],[189,17]]","true",""
"visual-search-circle","47","2.2.0","174169","78848","visual_search_trial","624","","f","","","","","","","","","","null","blue_triangle","1","[""images/Red_Triangle.png"",""images/Blue_Triangle.png"",""images/Blue_Triangle.png"",""images/Blue_Triangle.png"",""images/Blue_Triangle.png"",""images/Blue_Triangle.png"",""images/Blue_Triangle.png"",""images/Blue_Triangle.png"",""images/Blue_Triangle.png""]","true","[[1,105],[17,189],[84,243],[169,241],[234,185],[247,101],[203,27],[122,0],[42,30]]","true",""
"visual-search-circle","48","2.2.0","176439","78848","visual_search_trial","759","","f","","","","","","","","","","null","red_circle","1","[""images/Red_Triangle.png"",""images/Red_Circle.png"",""images/Red_Circle.png"",""images/Red_Circle.png"",""images/Red_Circle.png"",""images/Red_Circle.png""]","true","[[6,163],[99,247],[217,208],[243,86],[150,2],[32,41]]","true",""
"visual-search-circle","49","2.2.0","178657","78848","visual_search_trial","708","","f","","","","","","","","","","null","blue_triangle","1","[""images/Red_Triangle.png"",""images/Blue_Triangle.png"",""images/Blue_Triangle.png""]","true","[[58,231],[249,129],[66,14]]","true",""
"visual-search-circle","50","2.2.0","180776","78848","visual_search_trial","600","","f","","","","","","","","","","null","red_blue_mix","1","[""images/Red_Triangle.png"",""images/Blue_Circle.png"",""images/Red_Circle.png""]","true","[[6,163],[217,208],[150,2]]","true",""
"html-keyboard-response","51","2.1.0","182741","78848","break","1964","<p>Great job so far! Please rest for a few seconds before continuing.</p>
                 <p>Press the <strong>C</strong> key on your keyboard to continue.</p>","c","","","","","","","","","","","","","","","","","C"
"visual-search-circle","52","2.2.0","185403","78848","visual_search_trial","1146","","j","","","","","","","","","","null","red_blue_mix","2","[""images/Blue_Triangle.png"",""images/Blue_Circle.png"",""images/Blue_Circle.png"",""images/Red_Circle.png"",""images/Red_Circle.png"",""images/Blue_Circle.png""]","true","[[38,35],[3,155],[90,245],[211,214],[246,94],[159,4]]","false",""
"visual-search-circle","53","2.2.0","187606","78848","visual_search_trial","694","","f","","","","","","","","","","null","red_circle","2","[""images/Red_Triangle.png"",""images/Red_Circle.png"",""images/Red_Circle.png"",""images/Red_Circle.png"",""images/Red_Circle.png"",""images/Red_Circle.png"",""images/Red_Circle.png"",""images/Red_Circle.png"",""images/Red_Circle.png""]","true","[[217,41],[142,1],[58,18],[6,86],[9,171],[66,235],[150,247],[223,201],[249,120]]","true",""
"visual-search-circle","54","2.2.0","189799","78848","visual_search_trial","689","","f","","","","","","","","","","null","red_blue_mix","2","[""images/Red_Triangle.png"",""images/Blue_Circle.png"",""images/Blue_Circle.png""]","true","[[131,249],[229,56],[13,68]]","true",""
"visual-search-circle","55","2.2.0","192039","78848","visual_search_trial","728","","j","","","","","","","","","","null","blue_triangle","2","[""images/Blue_Triangle.png"",""images/Blue_Triangle.png"",""images/Blue_Triangle.png"",""images/Blue_Triangle.png"",""images/Blue_Triangle.png"",""images/Blue_Triangle.png"",""images/Blue_Triangle.png"",""images/Blue_Triangle.png"",""images/Blue_Triangle.png""]","true","[[0,129],[32,208],[107,248],[191,231],[243,163],[240,78],[183,14],[99,2],[26,48]]","false",""
"visual-search-circle","56","2.2.0","194285","78848","visual_search_trial","739","","j","","","","","","","","","","null","red_blue_mix","2","[""images/Blue_Circle.png"",""images/Red_Circle.png"",""images/Red_Circle.png""]","true","[[155,246],[214,38],[4,90]]","false",""
"visual-search-circle","57","2.2.0","196779","78848","visual_search_trial","986","","f","","","","","","","","","","null","red_circle","2","[""images/Red_Triangle.png"",""images/Red_Circle.png"",""images/Red_Circle.png"",""images/Red_Circle.png"",""images/Red_Circle.png"",""images/Red_Circle.png""]","true","[[11,72],[22,196],[135,249],[238,177],[227,53],[114,0]]","true",""
"visual-search-circle","58","2.2.0","199113","78848","visual_search_trial","823","","j","","","","","","","","","","null","red_blue_mix","2","[""images/Red_Circle.png"",""images/Red_Circle.png"",""images/Blue_Circle.png"",""images/Blue_Triangle.png"",""images/Blue_Circle.png"",""images/Blue_Circle.png"",""images/Blue_Circle.png"",""images/Blue_Circle.png"",""images/Blue_Triangle.png""]","true","[[92,245],[177,238],[238,177],[245,92],[196,22],[114,0],[36,36],[0,114],[22,196]]","false",""
"visual-search-circle","59","2.2.0","201222","78848","visual_search_trial","603","","f","","","","","","","","","","null","blue_triangle","2","[""images/Red_Triangle.png"",""images/Blue_Triangle.png"",""images/Blue_Triangle.png"",""images/Blue_Triangle.png"",""images/Blue_Triangle.png"",""images/Blue_Triangle.png"",""images/Blue_Triangle.png"",""images/Blue_Triangle.png"",""images/Blue_Triangle.png""]","true","[[16,62],[1,146],[44,220],[125,250],[205,220],[248,146],[233,62],[167,7],[82,7]]","true",""
"visual-search-circle","60","2.2.0","203600","78848","visual_search_trial","874","","f","","","","","","","","","","null","red_circle","2","[""images/Red_Triangle.png"",""images/Red_Circle.png"",""images/Red_Circle.png""]","true","[[248,146],[82,7],[44,220]]","true",""
"visual-search-circle","61","2.2.0","205882","78848","visual_search_trial","768","","f","","","","","","","","","","null","red_blue_mix","2","[""images/Red_Triangle.png"",""images/Red_Circle.png"",""images/Red_Circle.png"",""images/Red_Circle.png"",""images/Blue_Triangle.png"",""images/Red_Circle.png""]","true","[[42,30],[2,148],[84,243],[207,219],[247,101],[165,6]]","true",""
"visual-search-circle","62","2.2.0","208214","78848","visual_search_trial","816","","j","","","","","","","","","","null","red_circle","2","[""images/Red_Circle.png"",""images/Red_Circle.png"",""images/Red_Circle.png"",""images/Red_Circle.png"",""images/Red_Circle.png"",""images/Red_Circle.png"",""images/Red_Circle.png"",""images/Red_Circle.png"",""images/Red_Circle.png""]","true","[[66,235],[150,247],[223,201],[249,120],[217,41],[142,1],[58,18],[6,86],[9,171]]","false",""
"visual-search-circle","63","2.2.0","210461","78848","visual_search_trial","740","","j","","","","","","","","","","null","blue_triangle","2","[""images/Blue_Triangle.png"",""images/Blue_Triangle.png"",""images/Blue_Triangle.png""]","true","[[248,144],[80,8],[46,222]]","false",""
"visual-search-circle","64","2.2.0","212732","78848","visual_search_trial","765","","j","","","","","","","","","","null","red_circle","2","[""images/Red_Circle.png"",""images/Red_Circle.png"",""images/Red_Circle.png""]","true","[[193,229],[181,13],[0,131]]","false",""
"visual-search-circle","65","2.2.0","215053","78848","visual_search_trial","813","","j","","","","","","","","","","null","blue_triangle","2","[""images/Blue_Triangle.png"",""images/Blue_Triangle.png"",""images/Blue_Triangle.png"",""images/Blue_Triangle.png"",""images/Blue_Triangle.png"",""images/Blue_Triangle.png""]","true","[[1,146],[82,242],[205,220],[248,103],[167,7],[44,29]]","false",""
"visual-search-circle","66","2.2.0","217408","78848","visual_search_trial","843","","j","","","","","","","","","","null","red_circle","2","[""images/Red_Circle.png"",""images/Red_Circle.png"",""images/Red_Circle.png"",""images/Red_Circle.png"",""images/Red_Circle.png"",""images/Red_Circle.png""]","true","[[127,0],[17,60],[15,185],[122,249],[232,189],[234,64]]","false",""
"visual-search-circle","67","2.2.0","219676","78848","visual_search_trial","763","","f","","","","","","","","","","null","blue_triangle","2","[""images/Red_Triangle.png"",""images/Blue_Triangle.png"",""images/Blue_Triangle.png"",""images/Blue_Triangle.png"",""images/Blue_Triangle.png"",""images/Blue_Triangle.png""]","true","[[1,103],[44,220],[167,242],[248,146],[205,29],[82,7]]","true",""
"visual-search-circle","68","2.2.0","221931","78848","visual_search_trial","747","","f","","","","","","","","","","null","red_blue_mix","2","[""images/Red_Triangle.png"",""images/Blue_Triangle.png"",""images/Blue_Triangle.png"",""images/Blue_Circle.png"",""images/Blue_Triangle.png"",""images/Blue_Circle.png"",""images/Blue_Circle.png"",""images/Blue_Triangle.png"",""images/Blue_Triangle.png""]","true","[[185,234],[241,169],[243,84],[189,17],[105,1],[30,42],[0,122],[27,203],[101,247]]","true",""
"visual-search-circle","69","2.2.0","224168","78848","visual_search_trial","726","","f","","","","","","","","","","null","blue_triangle","2","[""images/Red_Triangle.png"",""images/Blue_Triangle.png"",""images/Blue_Triangle.png""]","true","[[248,142],[78,9],[48,223]]","true",""
"visual-search-circle","70","2.2.0","226514","78848","visual_search_trial","830","","j","","","","","","","","","","null","red_circle","3","[""images/Red_Circle.png"",""images/Red_Circle.png"",""images/Red_Circle.png"",""images/Red_Circle.png"",""images/Red_Circle.png"",""images/Red_Circle.png""]","true","[[189,232],[249,122],[185,15],[60,17],[0,127],[64,234]]","false",""
"visual-search-circle","71","2.2.0","228796","78848","visual_search_trial","767","","j","","","","","","","","","","null","red_blue_mix","3","[""images/Blue_Circle.png"",""images/Red_Circle.png"",""images/Blue_Circle.png""]","true","[[187,233],[187,16],[0,124]]","false",""
"visual-search-circle","72","2.2.0","231072","78848","visual_search_trial","770","","f","","","","","","","","","","null","blue_triangle","3","[""images/Red_Triangle.png"",""images/Blue_Triangle.png"",""images/Blue_Triangle.png"",""images/Blue_Triangle.png"",""images/Blue_Triangle.png"",""images/Blue_Triangle.png""]","true","[[228,55],[116,0],[12,70],[21,194],[133,249],[237,179]]","true",""
"visual-search-circle","73","2.2.0","233654","78848","visual_search_trial","1069","","f","","","","","","","","","","null","red_circle","3","[""images/Red_Triangle.png"",""images/Red_Circle.png"",""images/Red_Circle.png"",""images/Red_Circle.png"",""images/Red_Circle.png"",""images/Red_Circle.png""]","true","[[127,249],[234,185],[232,60],[122,0],[15,64],[17,189]]","true",""
"visual-search-circle","74","2.2.0","235892","78848","visual_search_trial","730","","f","","","","","","","","","","null","red_blue_mix","3","[""images/Red_Triangle.png"",""images/Blue_Circle.png"",""images/Blue_Circle.png""]","true","[[219,42],[6,84],[148,247]]","true",""
"visual-search-circle","75","2.2.0","238561","78848","visual_search_trial","1148","","f","","","","","","","","","","null","red_circle","3","[""images/Red_Triangle.png"",""images/Red_Circle.png"",""images/Red_Circle.png"",""images/Red_Circle.png"",""images/Red_Circle.png"",""images/Red_Circle.png"",""images/Red_Circle.png"",""images/Red_Circle.png"",""images/Red_Circle.png""]","true","[[14,66],[2,150],[48,223],[129,249],[208,217],[248,142],[231,58],[163,6],[78,9]]","true",""
"visual-search-circle","76","2.2.0","241005","78848","visual_search_trial","934","","j","","","","","","","","","","null","red_blue_mix","3","[""images/Red_Circle.png"",""images/Blue_Circle.png"",""images/Blue_Circle.png"",""images/Blue_Triangle.png"",""images/Blue_Circle.png"",""images/Blue_Circle.png"",""images/Red_Circle.png"",""images/Red_Circle.png"",""images/Red_Circle.png""]","true","[[240,173],[244,88],[193,20],[109,0],[33,39],[0,118],[25,200],[96,246],[181,236]]","false",""
"visual-search-circle","77","2.2.0","243173","78848","visual_search_trial","656","","f","","","","","","","","","","null","red_circle","3","[""images/Red_Triangle.png"",""images/Red_Circle.png"",""images/Red_Circle.png""]","true","[[249,133],[70,12],[55,228]]","true",""
"visual-search-circle","78","2.2.0","245378","78848","visual_search_trial","692","","f","","","","","","","","","","null","red_blue_mix","3","[""images/Red_Triangle.png"",""images/Red_Circle.png"",""images/Red_Circle.png"",""images/Blue_Triangle.png"",""images/Red_Circle.png"",""images/Red_Circle.png"",""images/Red_Circle.png"",""images/Blue_Circle.png"",""images/Red_Circle.png""]","true","[[196,227],[245,157],[238,72],[177,11],[92,4],[22,53],[0,135],[36,213],[114,249]]","true",""
"visual-search-circle","79","2.2.0","248775","78848","visual_search_trial","1881","","j","","","","","","","","","","null","blue_triangle","3","[""images/Blue_Triangle.png"",""images/Blue_Triangle.png"",""images/Blue_Triangle.png"",""images/Blue_Triangle.png"",""images/Blue_Triangle.png"",""images/Blue_Triangle.png""]","true","[[46,222],[169,241],[248,144],[203,27],[80,8],[1,105]]","false",""
"visual-search-circle","80","2.2.0","251214","78848","visual_search_trial","933","","j","","","","","","","","","","null","red_blue_mix","3","[""images/Blue_Circle.png"",""images/Red_Circle.png"",""images/Blue_Triangle.png"",""images/Blue_Triangle.png"",""images/Red_Circle.png"",""images/Red_Circle.png""]","true","[[155,3],[35,38],[4,159],[94,246],[214,211],[245,90]]","false",""
"visual-search-circle","81","2.2.0","253646","78848","visual_search_trial","912","","f","","","","","","","","","","null","blue_triangle","3","[""images/Red_Triangle.png"",""images/Blue_Triangle.png"",""images/Blue_Triangle.png"",""images/Blue_Triangle.png"",""images/Blue_Triangle.png"",""images/Blue_Triangle.png"",""images/Blue_Triangle.png"",""images/Blue_Triangle.png"",""images/Blue_Triangle.png""]","true","[[4,157],[53,227],[135,249],[213,213],[249,135],[227,53],[157,4],[72,11],[11,72]]","true",""
"visual-search-circle","82","2.2.0","255933","78848","visual_search_trial","772","","f","","","","","","","","","","null","red_blue_mix","3","[""images/Red_Triangle.png"",""images/Blue_Triangle.png"",""images/Blue_Triangle.png"",""images/Blue_Triangle.png"",""images/Blue_Triangle.png"",""images/Blue_Circle.png""]","true","[[1,105],[46,222],[169,241],[248,144],[203,27],[80,8]]","true",""
"visual-search-circle","83","2.2.0","258634","78848","visual_search_trial","1189","","j","","","","","","","","","","null","blue_triangle","3","[""images/Blue_Triangle.png"",""images/Blue_Triangle.png"",""images/Blue_Triangle.png"",""images/Blue_Triangle.png"",""images/Blue_Triangle.png"",""images/Blue_Triangle.png"",""images/Blue_Triangle.png"",""images/Blue_Triangle.png"",""images/Blue_Triangle.png""]","true","[[249,127],[222,46],[148,2],[64,15],[8,80],[6,165],[60,232],[144,248],[219,207]]","false",""
"visual-search-circle","84","2.2.0","260829","78848","visual_search_trial","688","","j","","","","","","","","","","null","red_circle","3","[""images/Red_Circle.png"",""images/Red_Circle.png"",""images/Red_Circle.png""]","true","[[5,161],[216,210],[153,3]]","false",""
"visual-search-circle","85","2.2.0","263029","78848","visual_search_trial","693","","f","","","","","","","","","","null","blue_triangle","3","[""images/Red_Triangle.png"",""images/Blue_Triangle.png"",""images/Blue_Triangle.png""]","true","[[55,228],[249,133],[70,12]]","true",""
"visual-search-circle","86","2.2.0","265184","78848","visual_search_trial","647","","j","","","","","","","","","","null","red_circle","3","[""images/Red_Circle.png"",""images/Red_Circle.png"",""images/Red_Circle.png"",""images/Red_Circle.png"",""images/Red_Circle.png"",""images/Red_Circle.png"",""images/Red_Circle.png"",""images/Red_Circle.png"",""images/Red_Circle.png""]","true","[[248,103],[205,29],[125,0],[44,29],[1,103],[16,187],[82,242],[167,242],[233,187]]","false",""
"visual-search-circle","87","2.2.0","267444","78848","visual_search_trial","756","","j","","","","","","","","","","null","blue_triangle","3","[""images/Blue_Triangle.png"",""images/Blue_Triangle.png"",""images/Blue_Triangle.png""]","true","[[10,175],[226,198],[138,0]]","false",""
"html-keyboard-response","88","2.1.0","269446","78848","break","2001","<p>Great job so far! Please rest for a few seconds before continuing.</p>
                 <p>Press the <strong>S</strong> key on your keyboard to continue.</p>","s","","","","","","","","","","","","","","","","","S"
"visual-search-circle","89","2.2.0","272187","78848","visual_search_trial","1236","","j","","","","","","","","","","null","red_circle","4","[""images/Red_Circle.png"",""images/Red_Circle.png"",""images/Red_Circle.png""]","true","[[181,13],[0,131],[193,229]]","false",""
"visual-search-circle","90","2.2.0","274349","78848","visual_search_trial","645","","f","","","","","","","","","","null","blue_triangle","4","[""images/Red_Triangle.png"",""images/Blue_Triangle.png"",""images/Blue_Triangle.png""]","true","[[181,13],[0,131],[193,229]]","true",""
"visual-search-circle","91","2.2.0","277105","78848","visual_search_trial","1247","","j","","","","","","","","","","null","red_blue_mix","4","[""images/Blue_Circle.png"",""images/Red_Circle.png"",""images/Blue_Circle.png"",""images/Red_Circle.png"",""images/Blue_Circle.png"",""images/Blue_Triangle.png"",""images/Blue_Triangle.png"",""images/Red_Circle.png"",""images/Blue_Circle.png""]","true","[[48,26],[2,99],[14,183],[78,240],[163,243],[231,191],[248,107],[208,32],[129,0]]","false",""
"visual-search-circle","92","2.2.0","279487","78848","visual_search_trial","869","","f","","","","","","","","","","null","red_circle","4","[""images/Red_Triangle.png"",""images/Red_Circle.png"",""images/Red_Circle.png"",""images/Red_Circle.png"",""images/Red_Circle.png"",""images/Red_Circle.png"",""images/Red_Circle.png"",""images/Red_Circle.png"",""images/Red_Circle.png""]","true","[[247,150],[235,66],[171,9],[86,6],[18,58],[1,142],[41,217],[120,249],[201,223]]","true",""
"visual-search-circle","93","2.2.0","282755","78848","visual_search_trial","1750","","j","","","","","","","","","","null","blue_triangle","4","[""images/Blue_Triangle.png"",""images/Blue_Triangle.png"",""images/Blue_Triangle.png"",""images/Blue_Triangle.png"",""images/Blue_Triangle.png"",""images/Blue_Triangle.png""]","true","[[107,248],[223,201],[240,78],[142,1],[26,48],[9,171]]","false",""
"visual-search-circle","94","2.2.0","285088","78848","visual_search_trial","827","","j","","","","","","","","","","null","red_blue_mix","4","[""images/Blue_Circle.png"",""images/Blue_Triangle.png"",""images/Blue_Triangle.png"",""images/Red_Circle.png"",""images/Red_Circle.png"",""images/Blue_Triangle.png""]","true","[[1,144],[80,241],[203,222],[248,105],[169,8],[46,27]]","false",""
"visual-search-circle","95","2.2.0","287181","78848","visual_search_trial","578","","j","","","","","","","","","","null","red_circle","4","[""images/Red_Circle.png"",""images/Red_Circle.png"",""images/Red_Circle.png"",""images/Red_Circle.png"",""images/Red_Circle.png"",""images/Red_Circle.png""]","true","[[138,249],[239,175],[226,51],[111,0],[10,74],[23,198]]","false",""
"visual-search-circle","96","2.2.0","289608","78848","visual_search_trial","922","","f","","","","","","","","","","null","blue_triangle","4","[""images/Red_Triangle.png"",""images/Blue_Triangle.png"",""images/Blue_Triangle.png"",""images/Blue_Triangle.png"",""images/Blue_Triangle.png"",""images/Blue_Triangle.png""]","true","[[249,133],[194,21],[70,12],[0,116],[55,228],[179,237]]","true",""
"visual-search-circle","97","2.2.0","292346","78848","visual_search_trial","1225","","f","","","","","","","","","","null","red_blue_mix","4","[""images/Red_Triangle.png"",""images/Red_Circle.png"",""images/Red_Circle.png"",""images/Blue_Circle.png"",""images/Red_Circle.png"",""images/Blue_Triangle.png"",""images/Blue_Triangle.png"",""images/Blue_Circle.png"",""images/Blue_Triangle.png""]","true","[[167,242],[233,187],[248,103],[205,29],[125,0],[44,29],[1,103],[16,187],[82,242]]","true",""
"visual-search-circle","98","2.2.0","294656","78848","visual_search_trial","793","","j","","","","","","","","","","null","red_circle","4","[""images/Red_Circle.png"",""images/Red_Circle.png"",""images/Red_Circle.png"",""images/Red_Circle.png"",""images/Red_Circle.png"",""images/Red_Circle.png"",""images/Red_Circle.png"",""images/Red_Circle.png"",""images/Red_Circle.png""]","true","[[248,144],[232,60],[165,6],[80,8],[15,64],[2,148],[46,222],[127,249],[207,219]]","false",""
"visual-search-circle","99","2.2.0","296963","78848","visual_search_trial","789","","f","","","","","","","","","","null","blue_triangle","4","[""images/Red_Triangle.png"",""images/Blue_Triangle.png"",""images/Blue_Triangle.png"",""images/Blue_Triangle.png"",""images/Blue_Triangle.png"",""images/Blue_Triangle.png"",""images/Blue_Triangle.png"",""images/Blue_Triangle.png"",""images/Blue_Triangle.png""]","true","[[247,148],[234,64],[169,8],[84,6],[17,60],[1,144],[42,219],[122,249],[203,222]]","true",""
"visual-search-circle","100","2.2.0","299416","78848","visual_search_trial","936","","j","","","","","","","","","","null","red_blue_mix","4","[""images/Blue_Circle.png"",""images/Blue_Triangle.png"",""images/Blue_Triangle.png""]","true","[[51,23],[74,239],[249,111]]","false",""
"visual-search-circle","101","2.2.0","301748","78848","visual_search_trial","815","","f","","","","","","","","","","null","blue_triangle","4","[""images/Blue_Triangle.png"",""images/Blue_Triangle.png"",""images/Blue_Triangle.png""]","false","[[0,114],[177,238],[196,22]]","false",""
"visual-search-circle","102","2.2.0","304186","78848","visual_search_trial","925","","f","","","","","","","","","","null","red_circle","4","[""images/Red_Triangle.png"",""images/Red_Circle.png"",""images/Red_Circle.png"",""images/Red_Circle.png"",""images/Red_Circle.png"",""images/Red_Circle.png""]","true","[[105,1],[8,80],[27,203],[144,248],[241,169],[222,46]]","true",""
"visual-search-circle","103","2.2.0","306540","78848","visual_search_trial","838","","f","","","","","","","","","","null","red_blue_mix","4","[""images/Red_Triangle.png"",""images/Red_Circle.png"",""images/Blue_Circle.png"",""images/Blue_Triangle.png"",""images/Blue_Circle.png"",""images/Red_Circle.png""]","true","[[249,109],[173,9],[49,25],[0,140],[76,240],[200,224]]","true",""
"visual-search-circle","104","2.2.0","308674","78848","visual_search_trial","621","","f","","","","","","","","","","null","red_circle","4","[""images/Red_Triangle.png"",""images/Red_Circle.png"",""images/Red_Circle.png""]","true","[[249,135],[72,11],[53,227]]","true",""
"visual-search-circle","105","2.2.0","310790","78848","visual_search_trial","612","","f","","","","","","","","","","null","red_blue_mix","4","[""images/Red_Triangle.png"",""images/Blue_Circle.png"",""images/Blue_Circle.png""]","true","[[0,135],[196,227],[177,11]]","true",""
"visual-search-circle","106","2.2.0","313385","78848","visual_search_trial","1080","","j","","","","","","","","","","null","blue_triangle","4","[""images/Blue_Triangle.png"",""images/Blue_Triangle.png"",""images/Blue_Triangle.png"",""images/Blue_Triangle.png"",""images/Blue_Triangle.png"",""images/Blue_Triangle.png"",""images/Blue_Triangle.png"",""images/Blue_Triangle.png"",""images/Blue_Triangle.png""]","true","[[129,0],[48,26],[2,99],[14,183],[78,240],[163,243],[231,191],[248,107],[208,32]]","false",""
"visual-search-circle","107","2.2.0","315731","78848","visual_search_trial","831","","f","","","","","","","","","","null","red_circle","5","[""images/Red_Triangle.png"",""images/Red_Circle.png"",""images/Red_Circle.png""]","true","[[249,122],[60,17],[64,234]]","true",""
"visual-search-circle","108","2.2.0","318031","78848","visual_search_trial","792","","j","","","","","","","","","","null","red_blue_mix","5","[""images/Blue_Circle.png"",""images/Blue_Triangle.png"",""images/Blue_Triangle.png"",""images/Blue_Triangle.png"",""images/Blue_Circle.png"",""images/Blue_Circle.png""]","true","[[76,9],[0,109],[49,224],[173,240],[249,140],[200,25]]","false",""
"visual-search-circle","109","2.2.0","320293","78848","visual_search_trial","746","","j","","","","","","","","","","null","blue_triangle","5","[""images/Blue_Triangle.png"",""images/Blue_Triangle.png"",""images/Blue_Triangle.png""]","true","[[68,13],[56,229],[249,131]]","false",""
"visual-search-circle","110","2.2.0","322658","78848","visual_search_trial","855","","f","","","","","","","","","","null","red_circle","5","[""images/Red_Triangle.png"",""images/Red_Circle.png"",""images/Red_Circle.png"",""images/Red_Circle.png"",""images/Red_Circle.png"",""images/Red_Circle.png"",""images/Red_Circle.png"",""images/Red_Circle.png"",""images/Red_Circle.png""]","true","[[13,181],[76,240],[161,244],[229,193],[249,109],[210,33],[131,0],[49,25],[3,96]]","true",""
"visual-search-circle","111","2.2.0","325333","78848","visual_search_trial","1158","","j","","","","","","","","","","null","red_blue_mix","5","[""images/Red_Circle.png"",""images/Blue_Circle.png"",""images/Blue_Circle.png"",""images/Blue_Triangle.png"",""images/Blue_Triangle.png"",""images/Red_Circle.png"",""images/Red_Circle.png"",""images/Blue_Circle.png"",""images/Blue_Circle.png""]","true","[[1,146],[44,220],[125,250],[205,220],[248,146],[233,62],[167,7],[82,7],[16,62]]","false",""
"visual-search-circle","112","2.2.0","327451","78848","visual_search_trial","611","","f","","","","","","","","","","null","blue_triangle","5","[""images/Red_Triangle.png"",""images/Blue_Triangle.png"",""images/Blue_Triangle.png"",""images/Blue_Triangle.png"",""images/Blue_Triangle.png"",""images/Blue_Triangle.png"",""images/Blue_Triangle.png"",""images/Blue_Triangle.png"",""images/Blue_Triangle.png""]","true","[[248,107],[208,32],[129,0],[48,26],[2,99],[14,183],[78,240],[163,243],[231,191]]","true",""
"visual-search-circle","113","2.2.0","329800","78848","visual_search_trial","833","","j","","","","","","","","","","null","red_circle","5","[""images/Red_Circle.png"",""images/Red_Circle.png"",""images/Red_Circle.png"",""images/Red_Circle.png"",""images/Red_Circle.png"",""images/Red_Circle.png"",""images/Red_Circle.png"",""images/Red_Circle.png"",""images/Red_Circle.png""]","true","[[191,18],[107,1],[32,41],[0,120],[26,201],[99,247],[183,235],[240,171],[243,86]]","false",""
"visual-search-circle","114","2.2.0","332035","78848","visual_search_trial","730","","f","","","","","","","","","","null","blue_triangle","5","[""images/Red_Triangle.png"",""images/Blue_Triangle.png"",""images/Blue_Triangle.png""]","true","[[70,237],[249,116],[55,21]]","true",""
"visual-search-circle","115","2.2.0","335845","78848","visual_search_trial","2302","","f","","","","","","","","","","null","red_circle","5","[""images/Red_Triangle.png"",""images/Red_Circle.png"",""images/Red_Circle.png"",""images/Red_Circle.png"",""images/Red_Circle.png"",""images/Red_Circle.png""]","true","[[249,140],[200,25],[76,9],[0,109],[49,224],[173,240]]","true",""
"visual-search-circle","116","2.2.0","338410","78848","visual_search_trial","1047","","f","","","","","","","","","","null","blue_triangle","5","[""images/Red_Triangle.png"",""images/Blue_Triangle.png"",""images/Blue_Triangle.png"",""images/Blue_Triangle.png"",""images/Blue_Triangle.png"",""images/Blue_Triangle.png""]","true","[[234,185],[232,60],[122,0],[15,64],[17,189],[127,249]]","true",""
"visual-search-circle","117","2.2.0","340866","78848","visual_search_trial","941","","j","","","","","","","","","","null","red_circle","5","[""images/Red_Circle.png"",""images/Red_Circle.png"",""images/Red_Circle.png"",""images/Red_Circle.png"",""images/Red_Circle.png"",""images/Red_Circle.png""]","true","[[248,107],[171,9],[48,26],[1,142],[78,240],[201,223]]","false",""
"visual-search-circle","118","2.2.0","343234","78848","visual_search_trial","856","","j","","","","","","","","","","null","red_blue_mix","5","[""images/Red_Circle.png"",""images/Red_Circle.png"",""images/Red_Circle.png""]","true","[[159,245],[211,35],[3,94]]","false",""
"visual-search-circle","119","2.2.0","345641","78848","visual_search_trial","898","","j","","","","","","","","","","null","blue_triangle","5","[""images/Blue_Triangle.png"",""images/Blue_Triangle.png"",""images/Blue_Triangle.png"",""images/Blue_Triangle.png"",""images/Blue_Triangle.png"",""images/Blue_Triangle.png""]","true","[[216,39],[96,3],[5,88],[33,210],[153,246],[244,161]]","false",""
"visual-search-circle","120","2.2.0","347885","78848","visual_search_trial","734","","f","","","","","","","","","","null","red_blue_mix","5","[""images/Red_Triangle.png"",""images/Red_Circle.png"",""images/Blue_Triangle.png"",""images/Red_Circle.png"",""images/Blue_Circle.png"",""images/Blue_Circle.png""]","true","[[249,122],[185,15],[60,17],[0,127],[64,234],[189,232]]","true",""
"visual-search-circle","121","2.2.0","350401","78848","visual_search_trial","1000","","j","","","","","","","","","","null","blue_triangle","5","[""images/Blue_Triangle.png"",""images/Blue_Triangle.png"",""images/Blue_Triangle.png"",""images/Blue_Triangle.png"",""images/Blue_Triangle.png"",""images/Blue_Triangle.png"",""images/Blue_Triangle.png"",""images/Blue_Triangle.png"",""images/Blue_Triangle.png""]","true","[[240,76],[181,13],[96,3],[25,49],[0,131],[33,210],[109,249],[193,229],[244,161]]","false",""
"visual-search-circle","122","2.2.0","352582","78848","visual_search_trial","670","","f","","","","","","","","","","null","red_blue_mix","5","[""images/Red_Triangle.png"",""images/Blue_Circle.png"",""images/Blue_Triangle.png""]","true","[[1,142],[201,223],[171,9]]","true",""
"visual-search-circle","123","2.2.0","354993","78848","visual_search_trial","898","","j","","","","","","","","","","null","red_circle","5","[""images/Red_Circle.png"",""images/Red_Circle.png"",""images/Red_Circle.png""]","true","[[6,84],[148,247],[219,42]]","false",""
"visual-search-circle","124","2.2.0","357643","78848","visual_search_trial","1136","","f","","","","","","","","","","null","red_blue_mix","5","[""images/Red_Triangle.png"",""images/Blue_Circle.png"",""images/Red_Circle.png"",""images/Blue_Triangle.png"",""images/Blue_Triangle.png"",""images/Blue_Circle.png"",""images/Red_Circle.png"",""images/Blue_Triangle.png"",""images/Blue_Circle.png""]","true","[[0,116],[23,198],[94,246],[179,237],[239,175],[245,90],[194,21],[111,0],[35,38]]","true",""
"html-keyboard-response","125","2.1.0","359378","78848","break","1734","<p>Great job so far! Please rest for a few seconds before continuing.</p>
                 <p>Press the <strong>O</strong> key on your keyboard to continue.</p>","o","","","","","","","","","","","","","","","","","O"
"visual-search-circle","126","2.2.0","361756","78848","visual_search_trial","869","","j","","","","","","","","","","null","blue_triangle","6","[""images/Blue_Triangle.png"",""images/Blue_Triangle.png"",""images/Blue_Triangle.png""]","true","[[2,150],[208,217],[163,6]]","false",""
"visual-search-circle","127","2.2.0","364474","78848","visual_search_trial","1198","","j","","","","","","","","","","null","red_blue_mix","6","[""images/Blue_Circle.png"",""images/Blue_Circle.png"",""images/Red_Circle.png"",""images/Blue_Triangle.png"",""images/Red_Circle.png"",""images/Blue_Circle.png"",""images/Blue_Circle.png"",""images/Blue_Triangle.png"",""images/Blue_Circle.png""]","true","[[249,116],[214,38],[138,0],[55,21],[4,90],[10,175],[70,237],[155,246],[226,198]]","false",""
"visual-search-circle","128","2.2.0","366652","78848","visual_search_trial","669","","f","","","","","","","","","","null","blue_triangle","6","[""images/Red_Triangle.png"",""images/Blue_Triangle.png"",""images/Blue_Triangle.png"",""images/Blue_Triangle.png"",""images/Blue_Triangle.png"",""images/Blue_Triangle.png"",""images/Blue_Triangle.png"",""images/Blue_Triangle.png"",""images/Blue_Triangle.png""]","true","[[12,70],[3,155],[51,226],[133,249],[211,214],[249,138],[228,55],[159,4],[74,10]]","true",""
"visual-search-circle","129","2.2.0","369023","78848","visual_search_trial","853","","j","","","","","","","","","","null","red_circle","6","[""images/Red_Circle.png"",""images/Red_Circle.png"",""images/Red_Circle.png"",""images/Red_Circle.png"",""images/Red_Circle.png"",""images/Red_Circle.png""]","true","[[36,213],[157,245],[245,157],[213,36],[92,4],[4,92]]","false",""
"visual-search-circle","130","2.2.0","371571","78848","visual_search_trial","1027","","j","","","","","","","","","","null","blue_triangle","6","[""images/Blue_Triangle.png"",""images/Blue_Triangle.png"",""images/Blue_Triangle.png"",""images/Blue_Triangle.png"",""images/Blue_Triangle.png"",""images/Blue_Triangle.png"",""images/Blue_Triangle.png"",""images/Blue_Triangle.png"",""images/Blue_Triangle.png""]","true","[[3,96],[13,181],[76,240],[161,244],[229,193],[249,109],[210,33],[131,0],[49,25]]","false",""
"visual-search-circle","131","2.2.0","374127","78848","visual_search_trial","1049","","f","","","","","","","","","","null","red_blue_mix","6","[""images/Red_Triangle.png"",""images/Red_Circle.png"",""images/Blue_Triangle.png"",""images/Blue_Triangle.png"",""images/Blue_Circle.png"",""images/Blue_Triangle.png"",""images/Blue_Circle.png"",""images/Red_Circle.png"",""images/Blue_Triangle.png""]","true","[[72,11],[11,72],[4,157],[53,227],[135,249],[213,213],[249,135],[227,53],[157,4]]","true",""
"visual-search-circle","132","2.2.0","376572","78848","visual_search_trial","930","","f","","","","","","","","","","null","red_circle","6","[""images/Red_Triangle.png"",""images/Red_Circle.png"",""images/Red_Circle.png"",""images/Red_Circle.png"",""images/Red_Circle.png"",""images/Red_Circle.png""]","true","[[198,23],[74,10],[0,111],[51,226],[175,239],[249,138]]","true",""
"visual-search-circle","133","2.2.0","379278","78848","visual_search_trial","1196","","j","","","","","","","","","","null","red_blue_mix","6","[""images/Blue_Triangle.png"",""images/Red_Circle.png"",""images/Blue_Circle.png""]","true","[[35,38],[94,246],[245,90]]","false",""
"visual-search-circle","134","2.2.0","381177","78848","visual_search_trial","387","","f","","","","","","","","","","null","red_circle","6","[""images/Red_Triangle.png"",""images/Red_Circle.png"",""images/Red_Circle.png"",""images/Red_Circle.png"",""images/Red_Circle.png"",""images/Red_Circle.png"",""images/Red_Circle.png"",""images/Red_Circle.png"",""images/Red_Circle.png""]","true","[[0,118],[25,200],[96,246],[181,236],[240,173],[244,88],[193,20],[109,0],[33,39]]","true",""
"visual-search-circle","135","2.2.0","383769","78848","visual_search_trial","1082","","j","","","","","","","","","","null","red_blue_mix","6","[""images/Blue_Circle.png"",""images/Blue_Circle.png"",""images/Red_Circle.png"",""images/Red_Circle.png"",""images/Blue_Circle.png"",""images/Blue_Triangle.png""]","true","[[189,232],[249,122],[185,15],[60,17],[0,127],[64,234]]","false",""
"visual-search-circle","136","2.2.0","385996","78848","visual_search_trial","716","","j","","","","","","","","","","null","red_circle","6","[""images/Red_Circle.png"",""images/Red_Circle.png"",""images/Red_Circle.png"",""images/Red_Circle.png"",""images/Red_Circle.png"",""images/Red_Circle.png"",""images/Red_Circle.png"",""images/Red_Circle.png"",""images/Red_Circle.png""]","true","[[90,4],[21,55],[0,138],[38,214],[116,249],[198,226],[246,155],[237,70],[175,10]]","false",""
"visual-search-circle","137","2.2.0","388271","78848","visual_search_trial","761","","f","","","","","","","","","","null","blue_triangle","6","[""images/Red_Triangle.png"",""images/Blue_Triangle.png"",""images/Blue_Triangle.png"",""images/Blue_Triangle.png"",""images/Blue_Triangle.png"",""images/Blue_Triangle.png""]","true","[[183,235],[249,129],[191,18],[66,14],[0,120],[58,231]]","true",""
"visual-search-circle","138","2.2.0","390448","78848","visual_search_trial","673","","f","","","","","","","","","","null","red_blue_mix","6","[""images/Red_Triangle.png"",""images/Blue_Circle.png"",""images/Red_Circle.png""]","true","[[96,3],[33,210],[244,161]]","true",""
"visual-search-circle","139","2.2.0","392834","78848","visual_search_trial","874","","j","","","","","","","","","","null","red_circle","6","[""images/Red_Circle.png"",""images/Red_Circle.png"",""images/Red_Circle.png""]","true","[[120,0],[18,191],[235,183]]","false",""
"visual-search-circle","140","2.2.0","395939","78848","visual_search_trial","1595","","j","","","","","","","","","","null","blue_triangle","6","[""images/Blue_Triangle.png"",""images/Blue_Triangle.png"",""images/Blue_Triangle.png"",""images/Blue_Triangle.png"",""images/Blue_Triangle.png"",""images/Blue_Triangle.png""]","true","[[92,4],[4,92],[36,213],[157,245],[245,157],[213,36]]","false",""
"visual-search-circle","141","2.2.0","398596","78848","visual_search_trial","1152","","f","","","","","","","","","","null","red_blue_mix","6","[""images/Red_Triangle.png"",""images/Blue_Circle.png"",""images/Blue_Triangle.png"",""images/Red_Circle.png"",""images/Blue_Circle.png"",""images/Blue_Triangle.png""]","true","[[14,66],[18,191],[129,249],[235,183],[231,58],[120,0]]","true",""
"visual-search-circle","142","2.2.0","400653","78848","visual_search_trial","551","","f","","","","","","","","","","null","blue_triangle","6","[""images/Red_Triangle.png"",""images/Blue_Triangle.png"",""images/Blue_Triangle.png""]","true","[[49,25],[76,240],[249,109]]","true",""
"visual-search-circle","143","2.2.0","403549","78848","visual_search_trial","1384","","f","","","","","","","","","","null","red_circle","6","[""images/Red_Triangle.png"",""images/Red_Circle.png"",""images/Red_Circle.png""]","true","[[226,198],[138,0],[10,175]]","true",""
"visual-search-circle","144","2.2.0","406211","78848","visual_search_trial","1149","","f","","","","","","","","","","null","red_blue_mix","7","[""images/Red_Triangle.png"",""images/Blue_Triangle.png"",""images/Blue_Triangle.png"",""images/Blue_Circle.png"",""images/Red_Circle.png"",""images/Red_Circle.png"",""images/Red_Circle.png"",""images/Blue_Triangle.png"",""images/Blue_Circle.png""]","true","[[133,249],[211,214],[249,138],[228,55],[159,4],[74,10],[12,70],[3,155],[51,226]]","true",""
"visual-search-circle","145","2.2.0","409548","78848","visual_search_trial","1822","","j","","","","","","","","","","null","blue_triangle","7","[""images/Blue_Triangle.png"",""images/Blue_Triangle.png"",""images/Blue_Triangle.png"",""images/Blue_Triangle.png"",""images/Blue_Triangle.png"",""images/Blue_Triangle.png"",""images/Blue_Triangle.png"",""images/Blue_Triangle.png"",""images/Blue_Triangle.png""]","true","[[235,183],[247,99],[201,26],[120,0],[41,32],[1,107],[18,191],[86,243],[171,240]]","false",""
"visual-search-circle","146","2.2.0","411841","78848","visual_search_trial","784","","f","","","","","","","","","","null","red_circle","7","[""images/Red_Triangle.png"",""images/Red_Circle.png"",""images/Red_Circle.png"",""images/Red_Circle.png"",""images/Red_Circle.png"",""images/Red_Circle.png""]","true","[[211,35],[90,4],[3,94],[38,214],[159,245],[246,155]]","true",""
"visual-search-circle","147","2.2.0","414203","78848","visual_search_trial","847","","j","","","","","","","","","","null","blue_triangle","7","[""images/Blue_Triangle.png"",""images/Blue_Triangle.png"",""images/Blue_Triangle.png"",""images/Blue_Triangle.png"",""images/Blue_Triangle.png"",""images/Blue_Triangle.png""]","true","[[234,185],[232,60],[122,0],[15,64],[17,189],[127,249]]","false",""
"visual-search-circle","148","2.2.0","417317","78848","visual_search_trial","1606","","j","","","","","","","","","","null","red_blue_mix","7","[""images/Red_Circle.png"",""images/Blue_Circle.png"",""images/Blue_Triangle.png"",""images/Red_Circle.png"",""images/Red_Circle.png"",""images/Red_Circle.png""]","true","[[6,86],[32,208],[150,247],[243,163],[217,41],[99,2]]","false",""
"visual-search-circle","149","2.2.0","419662","78848","visual_search_trial","828","","f","","","","","","","","","","null","blue_triangle","7","[""images/Red_Triangle.png"",""images/Blue_Triangle.png"",""images/Blue_Triangle.png""]","true","[[78,240],[248,107],[48,26]]","true",""
"visual-search-circle","150","2.2.0","421923","78848","visual_search_trial","754","","j","","","","","","","","","","null","red_blue_mix","7","[""images/Red_Circle.png"",""images/Red_Circle.png"",""images/Blue_Triangle.png""]","true","[[66,14],[58,231],[249,129]]","false",""
"visual-search-circle","151","2.2.0","424108","78848","visual_search_trial","673","","j","","","","","","","","","","null","blue_triangle","7","[""images/Blue_Triangle.png"",""images/Blue_Triangle.png"",""images/Blue_Triangle.png""]","true","[[213,36],[4,92],[157,245]]","false",""
"visual-search-circle","152","2.2.0","426442","78848","visual_search_trial","815","","f","","","","","","","","","","null","red_circle","7","[""images/Red_Triangle.png"",""images/Red_Circle.png"",""images/Red_Circle.png"",""images/Red_Circle.png"",""images/Red_Circle.png"",""images/Red_Circle.png"",""images/Red_Circle.png"",""images/Red_Circle.png"",""images/Red_Circle.png""]","true","[[131,0],[49,25],[3,96],[13,181],[76,240],[161,244],[229,193],[249,109],[210,33]]","true",""
"visual-search-circle","153","2.2.0","429008","78848","visual_search_trial","1053","","j","","","","","","","","","","null","red_blue_mix","7","[""images/Red_Circle.png"",""images/Red_Circle.png"",""images/Red_Circle.png"",""images/Red_Circle.png"",""images/Blue_Triangle.png"",""images/Red_Circle.png"",""images/Blue_Circle.png"",""images/Blue_Circle.png"",""images/Red_Circle.png""]","true","[[116,0],[38,35],[0,111],[21,194],[90,245],[175,239],[237,179],[246,94],[198,23]]","false",""
"visual-search-circle","154","2.2.0","431798","78848","visual_search_trial","1285","","j","","","","","","","","","","null","red_circle","7","[""images/Red_Circle.png"",""images/Red_Circle.png"",""images/Red_Circle.png"",""images/Red_Circle.png"",""images/Red_Circle.png"",""images/Red_Circle.png""]","true","[[56,229],[181,236],[249,131],[193,20],[68,13],[0,118]]","false",""
"visual-search-circle","155","2.2.0","439443","78848","visual_search_trial","6137","","f","","","","","","","","","","null","red_blue_mix","7","[""images/Red_Triangle.png"",""images/Red_Circle.png"",""images/Blue_Triangle.png""]","true","[[248,105],[46,27],[80,241]]","true",""
"visual-search-circle","156","2.2.0","441868","78848","visual_search_trial","917","","j","","","","","","","","","","null","red_circle","7","[""images/Red_Circle.png"",""images/Red_Circle.png"",""images/Red_Circle.png"",""images/Red_Circle.png"",""images/Red_Circle.png"",""images/Red_Circle.png"",""images/Red_Circle.png"",""images/Red_Circle.png"",""images/Red_Circle.png""]","true","[[1,142],[41,217],[120,249],[201,223],[247,150],[235,66],[171,9],[86,6],[18,58]]","false",""
"visual-search-circle","157","2.2.0","444095","78848","visual_search_trial","712","","f","","","","","","","","","","null","blue_triangle","7","[""images/Red_Triangle.png"",""images/Blue_Triangle.png"",""images/Blue_Triangle.png"",""images/Blue_Triangle.png"",""images/Blue_Triangle.png"",""images/Blue_Triangle.png"",""images/Blue_Triangle.png"",""images/Blue_Triangle.png"",""images/Blue_Triangle.png""]","true","[[201,223],[247,150],[235,66],[171,9],[86,6],[18,58],[1,142],[41,217],[120,249]]","true",""
"visual-search-circle","158","2.2.0","450105","78848","visual_search_trial","4496","","j","","","","","","","","","","null","red_circle","7","[""images/Red_Circle.png"",""images/Red_Circle.png"",""images/Red_Circle.png""]","true","[[193,229],[181,13],[0,131]]","false",""
"visual-search-circle","159","2.2.0","452540","78848","visual_search_trial","926","","f","","","","","","","","","","null","red_blue_mix","7","[""images/Red_Triangle.png"",""images/Red_Circle.png"",""images/Red_Circle.png"",""images/Blue_Triangle.png"",""images/Blue_Triangle.png"",""images/Red_Circle.png""]","true","[[213,36],[92,4],[4,92],[36,213],[157,245],[245,157]]","true",""
"visual-search-circle","160","2.2.0","455512","78848","visual_search_trial","1459","","f","","","","","","","","","","null","blue_triangle","7","[""images/Red_Triangle.png"",""images/Blue_Triangle.png"",""images/Blue_Triangle.png"",""images/Blue_Triangle.png"",""images/Blue_Triangle.png"",""images/Blue_Triangle.png""]","true","[[150,247],[243,163],[217,41],[99,2],[6,86],[32,208]]","true",""
"visual-search-circle","161","2.2.0","457747","78848","visual_search_trial","721","","f","","","","","","","","","","null","red_circle","7","[""images/Red_Triangle.png"",""images/Red_Circle.png"",""images/Red_Circle.png""]","true","[[226,198],[138,0],[10,175]]","true",""
"html-keyboard-response","162","2.1.0","458947","78848","break","1200","<p>Great job so far! Please rest for a few seconds before continuing.</p>
                 <p>Press the <strong>R</strong> key on your keyboard to continue.</p>","r","","","","","","","","","","","","","","","","","R"
"visual-search-circle","163","2.2.0","461245","78848","visual_search_trial","785","","f","","","","","","","","","","null","red_blue_mix","8","[""images/Red_Triangle.png"",""images/Blue_Triangle.png"",""images/Red_Circle.png""]","true","[[247,101],[42,30],[84,243]]","true",""
"visual-search-circle","164","2.2.0","698366","78848","visual_search_trial","235605","","j","","","","","","","","","","null","red_circle","8","[""images/Red_Circle.png"",""images/Red_Circle.png"",""images/Red_Circle.png"",""images/Red_Circle.png"",""images/Red_Circle.png"",""images/Red_Circle.png""]","true","[[58,231],[183,235],[249,129],[191,18],[66,14],[0,120]]","false",""
"visual-search-circle","165","2.2.0","700899","78848","visual_search_trial","1026","","j","","","","","","","","","","null","blue_triangle","8","[""images/Blue_Triangle.png"",""images/Blue_Triangle.png"",""images/Blue_Triangle.png""]","true","[[179,237],[194,21],[0,116]]","false",""
"visual-search-circle","166","2.2.0","702700","78848","visual_search_trial","280","","j","","","","","","","","","","null","red_blue_mix","8","[""images/Red_Triangle.png"",""images/Red_Circle.png"",""images/Blue_Circle.png"",""images/Blue_Triangle.png"",""images/Blue_Circle.png"",""images/Red_Circle.png"",""images/Blue_Triangle.png"",""images/Blue_Circle.png"",""images/Blue_Circle.png""]","false","[[48,223],[129,249],[208,217],[248,142],[231,58],[163,6],[78,9],[14,66],[2,150]]","true",""
"visual-search-circle","167","2.2.0","704442","78848","visual_search_trial","234","","j","","","","","","","","","","null","red_circle","8","[""images/Red_Triangle.png"",""images/Red_Circle.png"",""images/Red_Circle.png"",""images/Red_Circle.png"",""images/Red_Circle.png"",""images/Red_Circle.png"",""images/Red_Circle.png"",""images/Red_Circle.png"",""images/Red_Circle.png""]","false","[[80,241],[165,243],[232,189],[248,105],[207,30],[127,0],[46,27],[2,101],[15,185]]","true",""
"visual-search-circle","168","2.2.0","706434","78848","visual_search_trial","476","","j","","","","","","","","","","null","blue_triangle","8","[""images/Blue_Triangle.png"",""images/Blue_Triangle.png"",""images/Blue_Triangle.png"",""images/Blue_Triangle.png"",""images/Blue_Triangle.png"",""images/Blue_Triangle.png""]","true","[[244,161],[216,39],[96,3],[5,88],[33,210],[153,246]]","false",""
"visual-search-circle","169","2.2.0","709056","78848","visual_search_trial","1104","","j","","","","","","","","","","null","red_blue_mix","8","[""images/Blue_Circle.png"",""images/Blue_Triangle.png"",""images/Blue_Circle.png"",""images/Blue_Triangle.png"",""images/Red_Circle.png"",""images/Red_Circle.png"",""images/Red_Circle.png"",""images/Blue_Triangle.png"",""images/Blue_Circle.png""]","true","[[35,38],[0,116],[23,198],[94,246],[179,237],[239,175],[245,90],[194,21],[111,0]]","false",""
"visual-search-circle","170","2.2.0","710859","78848","visual_search_trial","298","","j","","","","","","","","","","null","red_circle","8","[""images/Red_Circle.png"",""images/Red_Circle.png"",""images/Red_Circle.png""]","true","[[16,187],[233,187],[125,0]]","false",""
"visual-search-circle","171","2.2.0","713327","78848","visual_search_trial","951","","j","","","","","","","","","","null","blue_triangle","8","[""images/Blue_Triangle.png"",""images/Blue_Triangle.png"",""images/Blue_Triangle.png"",""images/Blue_Triangle.png"",""images/Blue_Triangle.png"",""images/Blue_Triangle.png"",""images/Blue_Triangle.png"",""images/Blue_Triangle.png"",""images/Blue_Triangle.png""]","true","[[53,227],[135,249],[213,213],[249,135],[227,53],[157,4],[72,11],[11,72],[4,157]]","false",""
"visual-search-circle","172","2.2.0","715252","78848","visual_search_trial","409","","j","","","","","","","","","","null","red_blue_mix","8","[""images/Red_Circle.png"",""images/Blue_Triangle.png"",""images/Blue_Circle.png""]","true","[[140,249],[224,49],[9,76]]","false",""
"visual-search-circle","173","2.2.0","720611","78848","visual_search_trial","3849","","f","","","","","","","","","","null","blue_triangle","8","[""images/Red_Triangle.png"",""images/Blue_Triangle.png"",""images/Blue_Triangle.png""]","true","[[22,196],[238,177],[114,0]]","true",""
"visual-search-circle","174","2.2.0","730929","78848","visual_search_trial","8807","","f","","","","","","","","","","null","red_circle","8","[""images/Red_Triangle.png"",""images/Red_Circle.png"",""images/Red_Circle.png""]","true","[[82,242],[248,103],[44,29]]","true",""
"visual-search-circle","175","2.2.0","733255","78848","visual_search_trial","813","","f","","","","","","","","","","null","blue_triangle","8","[""images/Red_Triangle.png"",""images/Blue_Triangle.png"",""images/Blue_Triangle.png"",""images/Blue_Triangle.png"",""images/Blue_Triangle.png"",""images/Blue_Triangle.png""]","true","[[0,138],[74,239],[198,226],[249,111],[175,10],[51,23]]","true",""
"visual-search-circle","176","2.2.0","737283","78848","visual_search_trial","2519","","f","","","","","","","","","","null","red_blue_mix","8","[""images/Blue_Circle.png"",""images/Blue_Triangle.png"",""images/Blue_Triangle.png"",""images/Red_Circle.png"",""images/Red_Circle.png"",""images/Blue_Circle.png""]","false","[[187,233],[250,125],[187,16],[62,16],[0,124],[62,233]]","false",""
"visual-search-circle","177","2.2.0","739163","78848","visual_search_trial","365","","f","","","","","","","","","","null","red_circle","8","[""images/Red_Triangle.png"",""images/Red_Circle.png"",""images/Red_Circle.png"",""images/Red_Circle.png"",""images/Red_Circle.png"",""images/Red_Circle.png""]","true","[[135,249],[238,177],[227,53],[114,0],[11,72],[22,196]]","true",""
"visual-search-circle","178","2.2.0","741162","78848","visual_search_trial","491","","f","","","","","","","","","","null","blue_triangle","8","[""images/Red_Triangle.png"",""images/Blue_Triangle.png"",""images/Blue_Triangle.png"",""images/Blue_Triangle.png"",""images/Blue_Triangle.png"",""images/Blue_Triangle.png"",""images/Blue_Triangle.png"",""images/Blue_Triangle.png"",""images/Blue_Triangle.png""]","true","[[146,1],[62,16],[7,82],[7,167],[62,233],[146,248],[220,205],[250,125],[220,44]]","true",""
"visual-search-circle","179","2.2.0","743230","78848","visual_search_trial","549","","f","","","","","","","","","","null","red_blue_mix","8","[""images/Red_Triangle.png"",""images/Red_Circle.png"",""images/Red_Circle.png"",""images/Red_Circle.png"",""images/Blue_Triangle.png"",""images/Red_Circle.png""]","true","[[208,32],[86,6],[2,99],[41,217],[163,243],[247,150]]","true",""
"visual-search-circle","180","2.2.0","745038","78848","visual_search_trial","294","","f","","","","","","","","","","null","red_circle","8","[""images/Red_Circle.png"",""images/Red_Circle.png"",""images/Red_Circle.png"",""images/Red_Circle.png"",""images/Red_Circle.png"",""images/Red_Circle.png"",""images/Red_Circle.png"",""images/Red_Circle.png"",""images/Red_Circle.png""]","false","[[13,68],[3,153],[49,224],[131,249],[210,216],[249,140],[229,56],[161,5],[76,9]]","false",""
"visual-search-circle","181","2.2.0","748768","78848","visual_search_trial","2221","","f","","","","","","","","","","null","red_circle","9","[""images/Red_Triangle.png"",""images/Red_Circle.png"",""images/Red_Circle.png""]","true","[[153,246],[216,39],[5,88]]","true",""
"visual-search-circle","182","2.2.0","753346","78848","visual_search_trial","3067","","f","","","","","","","","","","null","blue_triangle","9","[""images/Red_Triangle.png"",""images/Blue_Triangle.png"",""images/Blue_Triangle.png"",""images/Blue_Triangle.png"",""images/Blue_Triangle.png"",""images/Blue_Triangle.png""]","true","[[228,194],[237,70],[133,0],[21,55],[12,179],[116,249]]","true",""
"visual-search-circle","183","2.2.0","755364","78848","visual_search_trial","507","","f","","","","","","","","","","null","red_blue_mix","9","[""images/Red_Triangle.png"",""images/Red_Circle.png"",""images/Blue_Circle.png"",""images/Blue_Triangle.png"",""images/Red_Circle.png"",""images/Blue_Triangle.png"",""images/Blue_Circle.png"",""images/Red_Circle.png"",""images/Red_Circle.png""]","true","[[175,10],[90,4],[21,55],[0,138],[38,214],[116,249],[198,226],[246,155],[237,70]]","true",""
"visual-search-circle","184","2.2.0","757470","78848","visual_search_trial","600","","f","","","","","","","","","","null","blue_triangle","9","[""images/Blue_Triangle.png"",""images/Blue_Triangle.png"",""images/Blue_Triangle.png"",""images/Blue_Triangle.png"",""images/Blue_Triangle.png"",""images/Blue_Triangle.png"",""images/Blue_Triangle.png"",""images/Blue_Triangle.png"",""images/Blue_Triangle.png""]","false","[[200,224],[246,153],[236,68],[173,9],[88,5],[20,56],[0,140],[39,216],[118,249]]","false",""
"visual-search-circle","185","2.2.0","759326","78848","visual_search_trial","340","","f","","","","","","","","","","null","red_blue_mix","9","[""images/Red_Triangle.png"",""images/Blue_Circle.png"",""images/Blue_Triangle.png"",""images/Blue_Circle.png"",""images/Blue_Triangle.png"",""images/Blue_Triangle.png""]","true","[[203,27],[80,8],[1,105],[46,222],[169,241],[248,144]]","true",""
"visual-search-circle","186","2.2.0","761128","78848","visual_search_trial","291","","f","","","","","","","","","","null","blue_triangle","9","[""images/Red_Triangle.png"",""images/Blue_Triangle.png"",""images/Blue_Triangle.png"",""images/Blue_Triangle.png"",""images/Blue_Triangle.png"",""images/Blue_Triangle.png"",""images/Blue_Triangle.png"",""images/Blue_Triangle.png"",""images/Blue_Triangle.png""]","true","[[20,56],[0,140],[39,216],[118,249],[200,224],[246,153],[236,68],[173,9],[88,5]]","true",""
"visual-search-circle","187","2.2.0","762864","78848","visual_search_trial","228","","f","","","","","","","","","","null","red_circle","9","[""images/Red_Triangle.png"",""images/Red_Circle.png"",""images/Red_Circle.png"",""images/Red_Circle.png"",""images/Red_Circle.png"",""images/Red_Circle.png"",""images/Red_Circle.png"",""images/Red_Circle.png"",""images/Red_Circle.png""]","true","[[9,78],[6,163],[58,231],[142,248],[217,208],[249,129],[223,48],[150,2],[66,14]]","true",""
"visual-search-circle","188","2.2.0","768863","78848","visual_search_trial","4494","","f","","","","","","","","","","null","blue_triangle","9","[""images/Blue_Triangle.png"",""images/Blue_Triangle.png"",""images/Blue_Triangle.png"",""images/Blue_Triangle.png"",""images/Blue_Triangle.png"",""images/Blue_Triangle.png""]","false","[[12,70],[21,194],[133,249],[237,179],[228,55],[116,0]]","false",""
"visual-search-circle","189","2.2.0","770797","78848","visual_search_trial","431","","f","","","","","","","","","","null","red_circle","9","[""images/Red_Circle.png"",""images/Red_Circle.png"",""images/Red_Circle.png""]","false","[[248,142],[78,9],[48,223]]","false",""
"visual-search-circle","190","2.2.0","772768","78848","visual_search_trial","465","","f","","","","","","","","","","null","red_blue_mix","9","[""images/Red_Triangle.png"",""images/Red_Circle.png"",""images/Blue_Triangle.png""]","true","[[224,200],[140,0],[9,173]]","true",""
"visual-search-circle","191","2.2.0","774824","78848","visual_search_trial","540","","f","","","","","","","","","","null","red_circle","9","[""images/Red_Circle.png"",""images/Red_Circle.png"",""images/Red_Circle.png"",""images/Red_Circle.png"",""images/Red_Circle.png"",""images/Red_Circle.png"",""images/Red_Circle.png"",""images/Red_Circle.png"",""images/Red_Circle.png""]","false","[[90,245],[175,239],[237,179],[246,94],[198,23],[116,0],[38,35],[0,111],[21,194]]","false",""
"visual-search-circle","192","2.2.0","776708","78848","visual_search_trial","377","","f","","","","","","","","","","null","blue_triangle","9","[""images/Blue_Triangle.png"",""images/Blue_Triangle.png"",""images/Blue_Triangle.png""]","false","[[179,237],[194,21],[0,116]]","false",""
"visual-search-circle","193","2.2.0","778905","78848","visual_search_trial","684","","f","","","","","","","","","","null","red_blue_mix","9","[""images/Blue_Triangle.png"",""images/Blue_Triangle.png"",""images/Blue_Triangle.png"",""images/Blue_Triangle.png"",""images/Red_Circle.png"",""images/Blue_Triangle.png"",""images/Red_Circle.png"",""images/Red_Circle.png"",""images/Red_Circle.png""]","false","[[0,127],[30,207],[105,248],[189,232],[243,165],[241,80],[185,15],[101,2],[27,46]]","false",""
"visual-search-circle","194","2.2.0","780925","78848","visual_search_trial","514","","f","","","","","","","","","","null","red_circle","9","[""images/Red_Circle.png"",""images/Red_Circle.png"",""images/Red_Circle.png"",""images/Red_Circle.png"",""images/Red_Circle.png"",""images/Red_Circle.png""]","false","[[191,18],[66,14],[0,120],[58,231],[183,235],[249,129]]","false",""
"visual-search-circle","195","2.2.0","782689","78848","visual_search_trial","258","","f","","","","","","","","","","null","red_blue_mix","9","[""images/Red_Circle.png"",""images/Red_Circle.png"",""images/Blue_Triangle.png"",""images/Red_Circle.png"",""images/Blue_Circle.png"",""images/Blue_Circle.png""]","false","[[0,133],[70,237],[194,228],[249,116],[179,12],[55,21]]","false",""
"visual-search-circle","196","2.2.0","785620","78848","visual_search_trial","1422","","f","","","","","","","","","","null","blue_triangle","9","[""images/Red_Triangle.png"",""images/Blue_Triangle.png"",""images/Blue_Triangle.png""]","true","[[29,44],[103,248],[242,82]]","true",""
"visual-search-circle","197","2.2.0","788106","78848","visual_search_trial","978","","f","","","","","","","","","","null","red_blue_mix","9","[""images/Blue_Circle.png"",""images/Blue_Circle.png"",""images/Blue_Triangle.png""]","false","[[25,49],[109,249],[240,76]]","false",""
"visual-search-circle","198","2.2.0","789934","78848","visual_search_trial","312","","f","","","","","","","","","","null","red_circle","9","[""images/Red_Triangle.png"",""images/Red_Circle.png"",""images/Red_Circle.png"",""images/Red_Circle.png"",""images/Red_Circle.png"",""images/Red_Circle.png""]","true","[[157,245],[245,157],[213,36],[92,4],[4,92],[36,213]]","true",""
"html-keyboard-response","199","2.1.0","850117","78848","break","60181","<p>Great job so far! Please rest for a few seconds before continuing.</p>
                 <p>Press the <strong>M</strong> key on your keyboard to continue.</p>","m","","","","","","","","","","","","","","","","","M"
"visual-search-circle","200","2.2.0","853206","78848","visual_search_trial","1575","","f","","","","","","","","","","null","red_circle","10","[""images/Red_Circle.png"",""images/Red_Circle.png"",""images/Red_Circle.png""]","false","[[3,153],[210,216],[161,5]]","false",""
"visual-search-circle","201","2.2.0","855385","78848","visual_search_trial","674","","f","","","","","","","","","","null","red_blue_mix","10","[""images/Blue_Circle.png"",""images/Blue_Triangle.png"",""images/Blue_Triangle.png""]","false","[[239,175],[111,0],[23,198]]","false",""
"visual-search-circle","202","2.2.0","857148","78848","visual_search_trial","247","","f","","","","","","","","","","null","blue_triangle","10","[""images/Blue_Triangle.png"",""images/Blue_Triangle.png"",""images/Blue_Triangle.png"",""images/Blue_Triangle.png"",""images/Blue_Triangle.png"",""images/Blue_Triangle.png"",""images/Blue_Triangle.png"",""images/Blue_Triangle.png"",""images/Blue_Triangle.png""]","false","[[198,226],[246,155],[237,70],[175,10],[90,4],[21,55],[0,138],[38,214],[116,249]]","false",""
"visual-search-circle","203","2.2.0","859019","78848","visual_search_trial","360","","f","","","","","","","","","","null","red_circle","10","[""images/Red_Triangle.png"",""images/Red_Circle.png"",""images/Red_Circle.png"",""images/Red_Circle.png"",""images/Red_Circle.png"",""images/Red_Circle.png"",""images/Red_Circle.png"",""images/Red_Circle.png"",""images/Red_Circle.png""]","true","[[150,2],[66,14],[9,78],[6,163],[58,231],[142,248],[217,208],[249,129],[223,48]]","true",""
"visual-search-circle","204","2.2.0","860905","78848","visual_search_trial","376","","f","","","","","","","","","","null","red_blue_mix","10","[""images/Blue_Circle.png"",""images/Blue_Triangle.png"",""images/Red_Circle.png"",""images/Blue_Circle.png"",""images/Blue_Triangle.png"",""images/Red_Circle.png""]","false","[[242,167],[220,44],[103,1],[7,82],[29,205],[146,248]]","false",""
"visual-search-circle","205","2.2.0","862853","78848","visual_search_trial","442","","f","","","","","","","","","","null","blue_triangle","10","[""images/Red_Triangle.png"",""images/Blue_Triangle.png"",""images/Blue_Triangle.png""]","true","[[0,129],[191,231],[183,14]]","true",""
"visual-search-circle","206","2.2.0","864737","78848","visual_search_trial","376","","f","","","","","","","","","","null","red_circle","10","[""images/Red_Triangle.png"",""images/Red_Circle.png"",""images/Red_Circle.png"",""images/Red_Circle.png"",""images/Red_Circle.png"",""images/Red_Circle.png""]","true","[[82,242],[205,220],[248,103],[167,7],[44,29],[1,146]]","true",""
"visual-search-circle","207","2.2.0","866472","78848","visual_search_trial","218","","f","","","","","","","","","","null","blue_triangle","10","[""images/Blue_Triangle.png"",""images/Blue_Triangle.png"",""images/Blue_Triangle.png""]","false","[[159,4],[3,155],[211,214]]","false",""
"visual-search-circle","208","2.2.0","868198","78848","visual_search_trial","208","","f","","","","","","","","","","null","red_blue_mix","10","[""images/Red_Triangle.png"",""images/Blue_Triangle.png"",""images/Red_Circle.png""]","true","[[231,191],[129,0],[14,183]]","true",""
"visual-search-circle","209","2.2.0","870220","78848","visual_search_trial","512","","f","","","","","","","","","","null","blue_triangle","10","[""images/Blue_Triangle.png"",""images/Blue_Triangle.png"",""images/Blue_Triangle.png"",""images/Blue_Triangle.png"",""images/Blue_Triangle.png"",""images/Blue_Triangle.png""]","false","[[177,11],[53,22],[0,135],[72,238],[196,227],[249,114]]","false",""
"visual-search-circle","210","2.2.0","871933","78848","visual_search_trial","200","","f","","","","","","","","","","null","red_circle","10","[""images/Red_Circle.png"",""images/Red_Circle.png"",""images/Red_Circle.png"",""images/Red_Circle.png"",""images/Red_Circle.png"",""images/Red_Circle.png"",""images/Red_Circle.png"",""images/Red_Circle.png"",""images/Red_Circle.png""]","false","[[142,1],[58,18],[6,86],[9,171],[66,235],[150,247],[223,201],[249,120],[217,41]]","false",""
"visual-search-circle","211","2.2.0","874147","78848","visual_search_trial","704","","f","","","","","","","","","","null","red_blue_mix","10","[""images/Red_Triangle.png"",""images/Blue_Triangle.png"",""images/Red_Circle.png"",""images/Red_Circle.png"",""images/Blue_Circle.png"",""images/Red_Circle.png""]","true","[[171,240],[248,142],[201,26],[78,9],[1,107],[48,223]]","true",""
"visual-search-circle","212","2.2.0","876448","78848","visual_search_trial","789","","f","","","","","","","","","","null","blue_triangle","10","[""images/Red_Triangle.png"",""images/Blue_Triangle.png"",""images/Blue_Triangle.png"",""images/Blue_Triangle.png"",""images/Blue_Triangle.png"",""images/Blue_Triangle.png""]","true","[[3,155],[90,245],[211,214],[246,94],[159,4],[38,35]]","true",""
"visual-search-circle","213","2.2.0","881364","78848","visual_search_trial","3403","","f","","","","","","","","","","null","red_circle","10","[""images/Red_Triangle.png"",""images/Red_Circle.png"",""images/Red_Circle.png""]","true","[[131,249],[229,56],[13,68]]","true",""
"visual-search-circle","214","2.2.0","893782","78848","visual_search_trial","10900","","f","","","","","","","","","","null","red_blue_mix","10","[""images/Blue_Triangle.png"",""images/Blue_Triangle.png"",""images/Blue_Circle.png"",""images/Blue_Triangle.png"",""images/Blue_Triangle.png"",""images/Red_Circle.png"",""images/Red_Circle.png"",""images/Blue_Triangle.png"",""images/Red_Circle.png""]","false","[[200,224],[246,153],[236,68],[173,9],[88,5],[20,56],[0,140],[39,216],[118,249]]","false",""
"visual-search-circle","215","2.2.0","914649","78848","visual_search_trial","19348","","f","","","","","","","","","","null","blue_triangle","10","[""images/Red_Triangle.png"",""images/Blue_Triangle.png"",""images/Blue_Triangle.png"",""images/Blue_Triangle.png"",""images/Blue_Triangle.png"",""images/Blue_Triangle.png"",""images/Blue_Triangle.png"",""images/Blue_Triangle.png"",""images/Blue_Triangle.png""]","true","[[114,249],[196,227],[245,157],[238,72],[177,11],[92,4],[22,53],[0,135],[36,213]]","true",""
"visual-search-circle","216","2.2.0","917357","78848","visual_search_trial","1190","","f","","","","","","","","","","null","red_blue_mix","10","[""images/Red_Triangle.png"",""images/Red_Circle.png"",""images/Blue_Triangle.png"",""images/Red_Circle.png"",""images/Red_Circle.png"",""images/Blue_Triangle.png"",""images/Blue_Circle.png"",""images/Blue_Triangle.png"",""images/Red_Circle.png""]","true","[[249,109],[210,33],[131,0],[49,25],[3,96],[13,181],[76,240],[161,244],[229,193]]","true",""
"visual-search-circle","217","2.2.0","925683","78848","visual_search_trial","6820","","f","","","","","","","","","","null","red_circle","10","[""images/Red_Circle.png"",""images/Red_Circle.png"",""images/Red_Circle.png"",""images/Red_Circle.png"",""images/Red_Circle.png"",""images/Red_Circle.png""]","false","[[90,245],[211,214],[246,94],[159,4],[38,35],[3,155]]","false",""
"visual-search-circle","218","2.2.0","927595","78848","visual_search_trial","395","","f","","","","","","","","","","null","blue_triangle","11","[""images/Red_Triangle.png"",""images/Blue_Triangle.png"",""images/Blue_Triangle.png"",""images/Blue_Triangle.png"",""images/Blue_Triangle.png"",""images/Blue_Triangle.png""]","true","[[129,249],[235,183],[231,58],[120,0],[14,66],[18,191]]","true",""
"visual-search-circle","219","2.2.0","929981","78848","visual_search_trial","875","","f","","","","","","","","","","null","red_blue_mix","11","[""images/Blue_Triangle.png"",""images/Red_Circle.png"",""images/Blue_Circle.png""]","false","[[163,6],[2,150],[208,217]]","false",""
"visual-search-circle","220","2.2.0","932725","78848","visual_search_trial","1234","","f","","","","","","","","","","null","red_circle","11","[""images/Red_Triangle.png"",""images/Red_Circle.png"",""images/Red_Circle.png"",""images/Red_Circle.png"",""images/Red_Circle.png"",""images/Red_Circle.png""]","true","[[35,211],[155,246],[245,159],[214,38],[94,3],[4,90]]","true",""
"visual-search-circle","221","2.2.0","934610","78848","visual_search_trial","373","","f","","","","","","","","","","null","red_blue_mix","11","[""images/Blue_Triangle.png"",""images/Blue_Triangle.png"",""images/Blue_Circle.png"",""images/Red_Circle.png"",""images/Red_Circle.png"",""images/Red_Circle.png"",""images/Red_Circle.png"",""images/Red_Circle.png"",""images/Red_Circle.png""]","false","[[23,198],[94,246],[179,237],[239,175],[245,90],[194,21],[111,0],[35,38],[0,116]]","false",""
"visual-search-circle","222","2.2.0","936591","78848","visual_search_trial","473","","f","","","","","","","","","","null","red_circle","11","[""images/Red_Triangle.png"",""images/Red_Circle.png"",""images/Red_Circle.png"",""images/Red_Circle.png"",""images/Red_Circle.png"",""images/Red_Circle.png"",""images/Red_Circle.png"",""images/Red_Circle.png"",""images/Red_Circle.png""]","true","[[10,74],[4,159],[55,228],[138,249],[214,211],[249,133],[226,51],[155,3],[70,12]]","true",""
"visual-search-circle","223","2.2.0","938583","78848","visual_search_trial","480","","f","","","","","","","","","","null","red_blue_mix","11","[""images/Blue_Circle.png"",""images/Red_Circle.png"",""images/Blue_Triangle.png"",""images/Blue_Circle.png"",""images/Blue_Circle.png"",""images/Blue_Triangle.png""]","false","[[245,92],[157,4],[36,36],[4,157],[92,245],[213,213]]","false",""
"visual-search-circle","224","2.2.0","942276","78848","visual_search_trial","2184","","f","","","","","","","","","","null","blue_triangle","11","[""images/Red_Triangle.png"",""images/Blue_Triangle.png"",""images/Blue_Triangle.png""]","true","[[183,235],[191,18],[0,120]]","true",""
"visual-search-circle","225","2.2.0","944140","78848","visual_search_trial","349","","f","","","","","","","","","","null","red_circle","11","[""images/Red_Triangle.png"",""images/Red_Circle.png"",""images/Red_Circle.png""]","true","[[217,208],[150,2],[6,163]]","true",""
"visual-search-circle","226","2.2.0","945976","78848","visual_search_trial","323","","f","","","","","","","","","","null","blue_triangle","11","[""images/Blue_Triangle.png"",""images/Blue_Triangle.png"",""images/Blue_Triangle.png"",""images/Blue_Triangle.png"",""images/Blue_Triangle.png"",""images/Blue_Triangle.png""]","false","[[48,26],[1,142],[78,240],[201,223],[248,107],[171,9]]","false",""
"visual-search-circle","227","2.2.0","947923","78848","visual_search_trial","433","","f","","","","","","","","","","null","red_blue_mix","11","[""images/Red_Triangle.png"",""images/Blue_Triangle.png"",""images/Red_Circle.png"",""images/Blue_Circle.png"",""images/Blue_Triangle.png"",""images/Blue_Circle.png""]","true","[[3,94],[38,214],[159,245],[246,155],[211,35],[90,4]]","true",""
"visual-search-circle","228","2.2.0","951710","78848","visual_search_trial","2274","","f","","","","","","","","","","null","blue_triangle","11","[""images/Red_Triangle.png"",""images/Blue_Triangle.png"",""images/Blue_Triangle.png"",""images/Blue_Triangle.png"",""images/Blue_Triangle.png"",""images/Blue_Triangle.png"",""images/Blue_Triangle.png"",""images/Blue_Triangle.png"",""images/Blue_Triangle.png""]","true","[[107,248],[191,231],[243,163],[240,78],[183,14],[99,2],[26,48],[0,129],[32,208]]","true",""
"visual-search-circle","229","2.2.0","954128","78848","visual_search_trial","908","","f","","","","","","","","","","null","red_circle","11","[""images/Red_Circle.png"",""images/Red_Circle.png"",""images/Red_Circle.png"",""images/Red_Circle.png"",""images/Red_Circle.png"",""images/Red_Circle.png"",""images/Red_Circle.png"",""images/Red_Circle.png"",""images/Red_Circle.png""]","false","[[146,248],[220,205],[250,125],[220,44],[146,1],[62,16],[7,82],[7,167],[62,233]]","false",""
"visual-search-circle","230","2.2.0","956474","78848","visual_search_trial","836","","f","","","","","","","","","","null","red_blue_mix","11","[""images/Red_Triangle.png"",""images/Red_Circle.png"",""images/Red_Circle.png"",""images/Red_Circle.png"",""images/Blue_Triangle.png"",""images/Blue_Circle.png"",""images/Red_Circle.png"",""images/Blue_Triangle.png"",""images/Red_Circle.png""]","true","[[0,111],[21,194],[90,245],[175,239],[237,179],[246,94],[198,23],[116,0],[38,35]]","true",""
"visual-search-circle","231","2.2.0","958414","78848","visual_search_trial","427","","f","","","","","","","","","","null","red_circle","11","[""images/Red_Circle.png"",""images/Red_Circle.png"",""images/Red_Circle.png""]","false","[[189,17],[0,122],[185,234]]","false",""
"visual-search-circle","232","2.2.0","960309","78848","visual_search_trial","383","","f","","","","","","","","","","null","blue_triangle","11","[""images/Blue_Triangle.png"",""images/Blue_Triangle.png"",""images/Blue_Triangle.png""]","false","[[8,80],[144,248],[222,46]]","false",""
"visual-search-circle","233","2.2.0","962234","78848","visual_search_trial","419","","f","","","","","","","","","","null","red_blue_mix","11","[""images/Red_Triangle.png"",""images/Blue_Triangle.png"",""images/Blue_Circle.png""]","true","[[42,30],[84,243],[247,101]]","true",""
