"trial_type","trial_index","plugin_version","time_elapsed","sona_id","phase","rt","stimulus","response","consented","required_key","view_history","question_order","success","timeout","failed_images","failed_audio","failed_video","set_size","distractor_type","block","stimuli_list","correct","locations","target_present","break_key"
"pavlovia","0","null","1458","79192","","","","","","","","","","","","","","","","","","","","",""
"html-button-response","1","2.1.0","48500","79192","informed_consent","47038","
    <div style=""max-width: 900px; margin: 0 auto; padding: 20px; text-align: left; line-height: 1.6;"">
      <h1 style=""text-align: center; color: #333; font-size: 24px; margin-bottom: 10px; font-weight: bold;"">
        INFORMED CONSENT INFORMATION
      </h1>
      <h2 style=""text-align: center; color: #333; font-size: 22px; margin-bottom: 20px; font-weight: bold;"">
        FOR RESEARCH PARTICIPATION
      </h2>
      
      <p style=""margin-bottom: 10px;""><strong>Study Title:</strong> The Effects of Mindfulness and Attention on Life Satisfaction and Memory</p>
      <p style=""margin-bottom: 10px;""><strong>Principal Investigator:</strong> Ella Bremmer</p>
      <p style=""margin-bottom: 10px;""><strong>Co-Principal Investigator:</strong> Dr. Gregory Cox</p>
      <p style=""margin-bottom: 20px;""><strong>IRB Study Number:</strong> STUDY00006288</p>

      <p style=""margin-bottom: 15px;"">I am a student at the University at Albany, in the Department of Psychology. I am planning to conduct a research study, which I invite you to take part in.</p>
      
      <p style=""margin-bottom: 25px;"">This form has important information about the reasons for doing this study, what we will ask you to do, and the way we would like to use the information we collect about you.</p>

      <h3 style=""color: #333; font-size: 18px; margin-top: 25px; margin-bottom: 10px; font-weight: bold;"">
        Why are you doing this study?
      </h3>
      <p style=""margin-bottom: 15px;"">You are being asked to participate in a research study that aims to understand if there is a relationship between mindfulness, the ability to pay attention, and life satisfaction.</p>
      
      <p style=""margin-bottom: 25px;"">The purpose of this study is to investigate if having better control over one's attention influences overall life satisfaction. Your participation will help us better understand if mindfulness and attention do have a significant effect on life satisfaction (i.e., how people feel about their lives overall). Then you will be asked to perform a conjunction visual search task to test your capacity to direct your attention over a sustained period.</p>

      <h3 style=""color: #333; font-size: 18px; margin-top: 25px; margin-bottom: 10px; font-weight: bold;"">
        Why am I eligible to participate in this study?
      </h3>
      <p style=""margin-bottom: 25px;"">You are eligible to participate because you are a student at UAlbany, are at least 18 years old, and are proficient in English.</p>

      <h3 style=""color: #333; font-size: 18px; margin-top: 25px; margin-bottom: 10px; font-weight: bold;"">
        What will I do if I choose to be in this study?
      </h3>
      <p style=""margin-bottom: 10px;"">If you choose to take part in our study, you will do the following:</p>
      <p style=""margin-bottom: 8px; margin-left: 20px;"">1. Read and agree to the informed consent.</p>
      <p style=""margin-bottom: 8px; margin-left: 40px;"">a. If you choose not to agree to the informed consent, you will be taken back to the SONA site.</p>
      <p style=""margin-bottom: 8px; margin-left: 20px;"">2. Complete a demographic questionnaire that asks about your age, English proficiency, gender, and race.</p>
      <p style=""margin-bottom: 8px; margin-left: 20px;"">3. Read instructions for the visual search task, which asks you to indicate if a target (a red triangle) is present among various other colored shapes. You should press the ""F"" key if a red triangle is present, or the ""J"" key if the target is absent.</p>
      <p style=""margin-bottom: 8px; margin-left: 20px;"">4. You will be asked to respond to 270 visual search trials, whith the opportunity to take short breaks as you go</p>
      <p style=""margin-bottom: 8px; margin-left: 20px;"">5. You will complete the Mindfulness Attention Awareness Scale (MAAS), the Satisfaction With Life Scale (SWLS), and the Big Five Inventory.</p>
      <p style=""margin-bottom: 25px; margin-left: 20px;"">6.	After all questionnaires are completed, participants will be thanked for their time and will be provided the study debriefing. Following the debriefing, you will be sent back to the SONA research site.</p>

      <h3 style=""color: #333; font-size: 18px; margin-top: 25px; margin-bottom: 10px; font-weight: bold;"">
        For how long will I participate?
      </h3>
      <p style=""margin-bottom: 25px;"">This study is a single online session that you can complete on a computer. The study can be completed in less than 30 minutes but could require as long as 45 minutes to complete.</p>

      <h3 style=""color: #333; font-size: 18px; margin-top: 25px; margin-bottom: 10px; font-weight: bold;"">
        Where will I need to go to participate?
      </h3>
      <p style=""margin-bottom: 25px;"">All study procedures will take place online and can be completed wherever you have internet connection.</p>

      <h3 style=""color: #333; font-size: 18px; margin-top: 25px; margin-bottom: 10px; font-weight: bold;"">
        Are there any costs I should be aware of?
      </h3>
      <p style=""margin-bottom: 25px;"">Participation is not expected to incur cost to participants. Free internet access is available anywhere on campus and in the university library.</p>

      <h3 style=""color: #333; font-size: 18px; margin-top: 25px; margin-bottom: 10px; font-weight: bold;"">
        What are the possible risks or discomforts?
      </h3>
      <p style=""margin-bottom: 15px;"">As with all research, there is a chance that confidentiality of the information we collect from you could be breached – we will take steps to minimize this risk, as discussed in more detail below.</p>
      
      <p style=""margin-bottom: 25px;"">The risks associated with participating in this study are minimal; however, you may experience mild discomfort when reflecting on your mindfulness or life satisfaction when answering questionnaires in the study. To help minimize this, you can withdraw from the study at any time without any consequences. The study will take place online, and you will have the opportunity to take breaks while completing the survey to reduce the risk of eye strain associated with the use of electronic devices.</p>

      <h3 style=""color: #333; font-size: 18px; margin-top: 25px; margin-bottom: 10px; font-weight: bold;"">
        What are the possible benefits for me or others?
      </h3>
      <p style=""margin-bottom: 25px;"">While there are no direct personal benefits to participants of this study, you may find value in reflecting on your mindfulness, attention, and its impact on life satisfaction by completing this survey. The data you contribute may help advance society's understanding of how mindfulness and attention relate to overall well-being, potentially informing future programs or interventions aimed at improving student mental health, attention, and life satisfaction.</p>

      <h3 style=""color: #333; font-size: 18px; margin-top: 25px; margin-bottom: 10px; font-weight: bold;"">
        Will I receive compensation for my participation?
      </h3>
      <p style=""margin-bottom: 25px;"">SONA partial class credit will be awarded via the Psychology Department SONA research pool after you complete the survey in its entirety. Participants who withdraw before completing the survey will not receive partial credit. You will not receive monetary compensation for your participation in this study.</p>

      <h3 style=""color: #333; font-size: 18px; margin-top: 25px; margin-bottom: 10px; font-weight: bold;"">
        How will you protect the information you collect about me, and how will that information be shared?
      </h3>
      <p style=""margin-bottom: 15px;"">Results of this study may be used in publications and presentations. Your data will be handled as confidentially as possible, and no identifiable information will be collected to link your data back to you. If results of this study are published or presented, only de-identified summaries of data will be used.</p>
      
      <p style=""margin-bottom: 25px;"">To minimize the risks to confidentiality, all data will be collected anonymously via Pavlovia.org which uses encryption to protect information (https://pavlovia.org/docs/home/ethics). Only the student researcher (Ella Bremmer), mentor (Pierce Johnson), and faculty advisor (Gregory Cox) will have password-protected access to the data. Data will be stored on secure, university approved computers.</p>

      <h3 style=""color: #333; font-size: 18px; margin-top: 25px; margin-bottom: 10px; font-weight: bold;"">
        Will my data be used in future research?
      </h3>
      <p style=""margin-bottom: 25px;"">No personal identifiers will be collected in the data you provide us. Data will not be used in future research, and will be deleted after the required retention period.</p>

      <h3 style=""color: #333; font-size: 18px; margin-top: 25px; margin-bottom: 10px; font-weight: bold;"">
        What are my rights as a research participant?
      </h3>
      <p style=""margin-bottom: 15px;"">Participation in this study is voluntary. You do not have to answer any question you do not want to answer. If at any time and for any reason, you would prefer not to participate in this study, please feel free not to. If at any time you would like to stop participating, you are welcome to stop. You can take a break or stop altogether. You may withdraw from this study at any time, and you will not be penalized in any way for deciding to stop participation.</p>
      
      <p style=""margin-bottom: 25px;"">If you decide to withdraw from this study, any information collected from you before withdrawing will not be used, and your data will be deleted.</p>

      <h3 style=""color: #333; font-size: 18px; margin-top: 25px; margin-bottom: 10px; font-weight: bold;"">
        What if I am a University at Albany student or employee?
      </h3>
      <p style=""margin-bottom: 25px;"">You may choose not to participate or to stop participating in this research at any time. This will not affect your class standing, grades, employment, or any other aspects of your relationship with the University at Albany.</p>

      <h3 style=""color: #333; font-size: 18px; margin-top: 25px; margin-bottom: 10px; font-weight: bold;"">
        Who can I contact if I have questions or concerns about this research study?
      </h3>
      <p style=""margin-bottom: 15px;"">If you have questions, please feel free to stop and email the investigator, Ella Bremmer (ebremmer@albany.edu) or advisors, Pierce Johnson (pjohnson4@albany.edu) and Dr. Greg Cox (gecox@albany.edu). If you have questions later, you may also contact the researchers.</p>
      
      <p style=""margin-bottom: 10px;"">If you have any questions about your rights as a participant in this research, you can contact the following office at the University at Albany:</p>
      
      <p style=""margin-bottom: 5px; margin-left: 20px;"">Institutional Review Board</p>
      <p style=""margin-bottom: 5px; margin-left: 20px;"">University at Albany</p>
      <p style=""margin-bottom: 5px; margin-left: 20px;"">Office of Regulatory and Research Compliance</p>
      <p style=""margin-bottom: 5px; margin-left: 20px;"">1400 Washington Ave, Biology 227</p>
      <p style=""margin-bottom: 5px; margin-left: 20px;"">Albany, NY 12222</p>
      <p style=""margin-bottom: 5px; margin-left: 20px;"">Phone: 1-866-857-5459</p>
      <p style=""margin-bottom: 25px; margin-left: 20px;"">Email: rco@albany.edu</p>

      <h3 style=""color: #333; font-size: 18px; margin-top: 30px; margin-bottom: 10px; font-weight: bold;"">
        Consent
      </h3>
      <p style=""margin-bottom: 20px;"">I have read this form and the research study has been explained to me. I have been given the opportunity to ask questions and my questions have been answered. If I have additional questions, I have been told whom to contact. I agree to participate in the research study described above. I understand that I have the opportunity to download and save a copy of this form for my records.</p>

      <div style=""background-color: #f9f9f9; border: 2px solid #4CAF50; border-radius: 5px; padding: 20px; margin-top: 20px; margin-bottom: 20px;"">
        <p style=""margin-bottom: 15px; font-weight: bold;"">To save a copy of this consent form for your records, press Ctrl+P (Windows/Linux) or Cmd+P (Mac) and select ""Save as PDF"".</p>
        <p style=""margin-bottom: 0; font-weight: bold;"">By clicking ""I Agree"" below, I confirm that I agree to participate in the research study described above, and that doing so serves as my written signature consenting to take part in the study.</p>
      </div>
    </div>
  ","0","true","","","","","","","","","","","","","","","",""
"instructions","3","2.1.0","72620","79192","intro_instructions","24118","","","","f","[{""page_index"":0,""viewing_time"":24118}]","","","","","","","","","","","","","",""
"html-keyboard-response","4","2.1.0","74623","79192","intermediate_slide_demo","null","<p style=""font-size:4vw"">Demographic Questionnaire</p>","null","","","","","","","","","","","","","","","","",""
"survey-multi-choice","5","2.1.0","79443","79192","demographics_english","4818","","{""english"":""Strongly agree""}","","","","[0]","","","","","","","","","","","","",""
"survey-text","7","2.1.0","82476","79192","demographics_age","3021","","{""age"":""20""}","","","","","","","","","","","","","","","","",""
"survey-multi-select","9","2.1.0","85138","79192","demographics_gender","2659","","{""gender"":[""Woman""]}","","","","[0]","","","","","","","","","","","","",""
"survey-multi-choice","11","2.1.0","88445","79192","demographics_race","3305","","{""race"":""White or Caucasian""}","","","","[0]","","","","","","","","","","","","",""
"html-keyboard-response","12","2.1.0","90447","79192","intermediate_slide_VS","null","<p style=""font-size:4vw"">Visual Search Task</p>","null","","","","","","","","","","","","","","","","",""
"preload","13","2.1.0","91349","79192","image_preload","","","","","","","","true","false","[]","[]","[]","","","","","","","",""
"html-button-response","14","2.1.0","100506","79192","vs_instructions","9155","<p>On the following screens, you will see a series of colored shapes (triangles, squares, and circles) appear.</p>
    <p>Please Press 'F' if there <strong>is</strong> a red triangle among the shapes you see.</p>
    <p>Press 'J' if there is <strong>not</strong> a red triangle among the shapes you see.</p>","0","","","","","","","","","","","","","","","","",""
"visual-search-circle","15","2.2.0","106771","79192","visual_search_trial","4759","","j","","","","","","","","","","null","red_circle","0","[""images/Red_Circle.png"",""images/Red_Circle.png"",""images/Red_Circle.png"",""images/Red_Circle.png"",""images/Red_Circle.png"",""images/Red_Circle.png""]","true","[[16,62],[16,187],[125,250],[233,187],[233,62],[125,0]]","false",""
"visual-search-circle","16","2.2.0","111411","79192","visual_search_trial","3135","","f","","","","","","","","","","null","red_blue_mix","0","[""images/Red_Triangle.png"",""images/Blue_Circle.png"",""images/Blue_Triangle.png"",""images/Blue_Circle.png"",""images/Blue_Circle.png"",""images/Blue_Circle.png""]","true","[[177,11],[53,22],[0,135],[72,238],[196,227],[249,114]]","true",""
"visual-search-circle","17","2.2.0","115740","79192","visual_search_trial","2823","","j","","","","","","","","","","null","blue_triangle","0","[""images/Blue_Triangle.png"",""images/Blue_Triangle.png"",""images/Blue_Triangle.png"",""images/Blue_Triangle.png"",""images/Blue_Triangle.png"",""images/Blue_Triangle.png"",""images/Blue_Triangle.png"",""images/Blue_Triangle.png"",""images/Blue_Triangle.png""]","true","[[88,244],[173,240],[236,181],[246,96],[200,25],[118,0],[39,33],[0,109],[20,193]]","false",""
"visual-search-circle","18","2.2.0","118590","79192","visual_search_trial","1346","","f","","","","","","","","","","null","red_blue_mix","0","[""images/Red_Triangle.png"",""images/Blue_Circle.png"",""images/Red_Circle.png""]","true","[[224,200],[140,0],[9,173]]","true",""
"visual-search-circle","19","2.2.0","121672","79192","visual_search_trial","1577","","j","","","","","","","","","","null","red_circle","0","[""images/Red_Circle.png"",""images/Red_Circle.png"",""images/Red_Circle.png""]","true","[[144,248],[222,46],[8,80]]","false",""
"visual-search-circle","20","2.2.0","124553","79192","visual_search_trial","1376","","j","","","","","","","","","","null","red_blue_mix","0","[""images/Blue_Triangle.png"",""images/Blue_Circle.png"",""images/Red_Circle.png"",""images/Blue_Circle.png"",""images/Blue_Circle.png"",""images/Blue_Circle.png""]","true","[[0,114],[53,227],[177,238],[249,135],[196,22],[72,11]]","false",""
"visual-search-circle","21","2.2.0","127276","79192","visual_search_trial","1219","","f","","","","","","","","","","null","red_circle","0","[""images/Red_Triangle.png"",""images/Red_Circle.png"",""images/Red_Circle.png""]","true","[[237,70],[21,55],[116,249]]","true",""
"visual-search-circle","22","2.2.0","129870","79192","visual_search_trial","1090","","f","","","","","","","","","","null","blue_triangle","0","[""images/Red_Triangle.png"",""images/Blue_Triangle.png"",""images/Blue_Triangle.png""]","true","[[22,196],[238,177],[114,0]]","true",""
"visual-search-circle","23","2.2.0","132524","79192","visual_search_trial","1149","","f","","","","","","","","","","null","red_blue_mix","0","[""images/Red_Triangle.png"",""images/Red_Circle.png"",""images/Red_Circle.png"",""images/Red_Circle.png"",""images/Red_Circle.png"",""images/Red_Circle.png"",""images/Red_Circle.png"",""images/Blue_Circle.png"",""images/Red_Circle.png""]","true","[[222,46],[148,2],[64,15],[8,80],[6,165],[60,232],[144,248],[219,207],[249,127]]","true",""
"visual-search-circle","24","2.2.0","135213","79192","visual_search_trial","1183","","f","","","","","","","","","","null","blue_triangle","0","[""images/Red_Triangle.png"",""images/Blue_Triangle.png"",""images/Blue_Triangle.png"",""images/Blue_Triangle.png"",""images/Blue_Triangle.png"",""images/Blue_Triangle.png""]","true","[[116,0],[12,70],[21,194],[133,249],[237,179],[228,55]]","true",""
"visual-search-circle","25","2.2.0","137651","79192","visual_search_trial","933","","f","","","","","","","","","","null","red_circle","0","[""images/Red_Triangle.png"",""images/Red_Circle.png"",""images/Red_Circle.png"",""images/Red_Circle.png"",""images/Red_Circle.png"",""images/Red_Circle.png"",""images/Red_Circle.png"",""images/Red_Circle.png"",""images/Red_Circle.png""]","true","[[245,157],[238,72],[177,11],[92,4],[22,53],[0,135],[36,213],[114,249],[196,227]]","true",""
"visual-search-circle","26","2.2.0","140271","79192","visual_search_trial","1116","","j","","","","","","","","","","null","blue_triangle","0","[""images/Blue_Triangle.png"",""images/Blue_Triangle.png"",""images/Blue_Triangle.png"",""images/Blue_Triangle.png"",""images/Blue_Triangle.png"",""images/Blue_Triangle.png""]","true","[[131,249],[236,181],[229,56],[118,0],[13,68],[20,193]]","false",""
"visual-search-circle","27","2.2.0","144372","79192","visual_search_trial","2596","","j","","","","","","","","","","null","red_blue_mix","0","[""images/Blue_Triangle.png"",""images/Blue_Triangle.png"",""images/Red_Circle.png"",""images/Red_Circle.png"",""images/Blue_Triangle.png"",""images/Blue_Circle.png"",""images/Red_Circle.png"",""images/Blue_Circle.png"",""images/Red_Circle.png""]","true","[[179,237],[239,175],[245,90],[194,21],[111,0],[35,38],[0,116],[23,198],[94,246]]","false",""
"visual-search-circle","28","2.2.0","146952","79192","visual_search_trial","1075","","f","","","","","","","","","","null","red_circle","0","[""images/Red_Triangle.png"",""images/Red_Circle.png"",""images/Red_Circle.png"",""images/Red_Circle.png"",""images/Red_Circle.png"",""images/Red_Circle.png""]","true","[[226,198],[239,74],[138,0],[23,51],[10,175],[111,249]]","true",""
"visual-search-circle","29","2.2.0","149374","79192","visual_search_trial","916","","f","","","","","","","","","","null","blue_triangle","0","[""images/Red_Triangle.png"",""images/Blue_Triangle.png"",""images/Blue_Triangle.png"",""images/Blue_Triangle.png"",""images/Blue_Triangle.png"",""images/Blue_Triangle.png"",""images/Blue_Triangle.png"",""images/Blue_Triangle.png"",""images/Blue_Triangle.png""]","true","[[249,138],[228,55],[159,4],[74,10],[12,70],[3,155],[51,226],[133,249],[211,214]]","true",""
"visual-search-circle","30","2.2.0","152329","79192","visual_search_trial","1450","","j","","","","","","","","","","null","red_circle","0","[""images/Red_Circle.png"",""images/Red_Circle.png"",""images/Red_Circle.png"",""images/Red_Circle.png"",""images/Red_Circle.png"",""images/Red_Circle.png"",""images/Red_Circle.png"",""images/Red_Circle.png"",""images/Red_Circle.png""]","true","[[175,10],[90,4],[21,55],[0,138],[38,214],[116,249],[198,226],[246,155],[237,70]]","false",""
"visual-search-circle","31","2.2.0","154602","79192","visual_search_trial","769","","j","","","","","","","","","","null","blue_triangle","0","[""images/Blue_Triangle.png"",""images/Blue_Triangle.png"",""images/Blue_Triangle.png""]","true","[[125,250],[233,62],[16,62]]","false",""
"visual-search-circle","32","2.2.0","156718","79192","visual_search_trial","612","","j","","","","","","","","","","null","red_blue_mix","0","[""images/Blue_Circle.png"",""images/Blue_Circle.png"",""images/Blue_Circle.png""]","true","[[94,246],[245,90],[35,38]]","false",""
"visual-search-circle","33","2.2.0","159082","79192","visual_search_trial","861","","f","","","","","","","","","","null","red_blue_mix","1","[""images/Red_Triangle.png"",""images/Blue_Circle.png"",""images/Red_Circle.png""]","true","[[155,3],[4,159],[214,211]]","true",""
"visual-search-circle","34","2.2.0","161424","79192","visual_search_trial","837","","f","","","","","","","","","","null","red_circle","1","[""images/Red_Triangle.png"",""images/Red_Circle.png"",""images/Red_Circle.png"",""images/Red_Circle.png"",""images/Red_Circle.png"",""images/Red_Circle.png"",""images/Red_Circle.png"",""images/Red_Circle.png"",""images/Red_Circle.png""]","true","[[148,2],[64,15],[8,80],[6,165],[60,232],[144,248],[219,207],[249,127],[222,46]]","true",""
"visual-search-circle","35","2.2.0","164572","79192","visual_search_trial","1642","","j","","","","","","","","","","null","red_blue_mix","1","[""images/Red_Circle.png"",""images/Red_Circle.png"",""images/Blue_Triangle.png"",""images/Red_Circle.png"",""images/Red_Circle.png"",""images/Red_Circle.png"",""images/Blue_Circle.png"",""images/Blue_Triangle.png"",""images/Red_Circle.png""]","true","[[125,250],[205,220],[248,146],[233,62],[167,7],[82,7],[16,62],[1,146],[44,220]]","false",""
"visual-search-circle","36","2.2.0","167091","79192","visual_search_trial","1015","","f","","","","","","","","","","null","red_circle","1","[""images/Red_Triangle.png"",""images/Red_Circle.png"",""images/Red_Circle.png""]","true","[[105,1],[27,203],[241,169]]","true",""
"visual-search-circle","37","2.2.0","169578","79192","visual_search_trial","983","","j","","","","","","","","","","null","red_blue_mix","1","[""images/Red_Circle.png"",""images/Blue_Circle.png"",""images/Blue_Circle.png""]","true","[[222,203],[144,1],[8,169]]","false",""
"visual-search-circle","38","2.2.0","171757","79192","visual_search_trial","674","","j","","","","","","","","","","null","blue_triangle","1","[""images/Blue_Triangle.png"",""images/Blue_Triangle.png"",""images/Blue_Triangle.png"",""images/Blue_Triangle.png"",""images/Blue_Triangle.png"",""images/Blue_Triangle.png""]","true","[[120,0],[14,66],[18,191],[129,249],[235,183],[231,58]]","false",""
"visual-search-circle","39","2.2.0","174071","79192","visual_search_trial","808","","f","","","","","","","","","","null","red_blue_mix","1","[""images/Red_Triangle.png"",""images/Blue_Triangle.png"",""images/Blue_Triangle.png"",""images/Blue_Triangle.png"",""images/Blue_Circle.png"",""images/Blue_Triangle.png"",""images/Blue_Circle.png"",""images/Red_Circle.png"",""images/Blue_Circle.png""]","true","[[101,247],[185,234],[241,169],[243,84],[189,17],[105,1],[30,42],[0,122],[27,203]]","true",""
"visual-search-circle","40","2.2.0","176698","79192","visual_search_trial","1121","","j","","","","","","","","","","null","blue_triangle","1","[""images/Blue_Triangle.png"",""images/Blue_Triangle.png"",""images/Blue_Triangle.png"",""images/Blue_Triangle.png"",""images/Blue_Triangle.png"",""images/Blue_Triangle.png"",""images/Blue_Triangle.png"",""images/Blue_Triangle.png"",""images/Blue_Triangle.png""]","true","[[201,223],[247,150],[235,66],[171,9],[86,6],[18,58],[1,142],[41,217],[120,249]]","false",""
"visual-search-circle","41","2.2.0","179139","79192","visual_search_trial","936","","j","","","","","","","","","","null","red_circle","1","[""images/Red_Circle.png"",""images/Red_Circle.png"",""images/Red_Circle.png"",""images/Red_Circle.png"",""images/Red_Circle.png"",""images/Red_Circle.png""]","true","[[1,144],[80,241],[203,222],[248,105],[169,8],[46,27]]","false",""
"visual-search-circle","42","2.2.0","181653","79192","visual_search_trial","1009","","f","","","","","","","","","","null","blue_triangle","1","[""images/Red_Triangle.png"",""images/Blue_Triangle.png"",""images/Blue_Triangle.png"",""images/Blue_Triangle.png"",""images/Blue_Triangle.png"",""images/Blue_Triangle.png"",""images/Blue_Triangle.png"",""images/Blue_Triangle.png"",""images/Blue_Triangle.png""]","true","[[224,200],[249,118],[216,39],[140,0],[56,20],[5,88],[9,173],[68,236],[153,246]]","true",""
"visual-search-circle","43","2.2.0","184567","79192","visual_search_trial","1409","","j","","","","","","","","","","null","red_circle","1","[""images/Red_Circle.png"",""images/Red_Circle.png"",""images/Red_Circle.png""]","true","[[7,167],[220,205],[146,1]]","false",""
"visual-search-circle","44","2.2.0","187395","79192","visual_search_trial","1324","","f","","","","","","","","","","null","blue_triangle","1","[""images/Red_Triangle.png"",""images/Blue_Triangle.png"",""images/Blue_Triangle.png"",""images/Blue_Triangle.png"",""images/Blue_Triangle.png"",""images/Blue_Triangle.png""]","true","[[25,49],[9,173],[109,249],[224,200],[240,76],[140,0]]","true",""
"visual-search-circle","45","2.2.0","190144","79192","visual_search_trial","1244","","j","","","","","","","","","","null","red_blue_mix","1","[""images/Blue_Circle.png"",""images/Red_Circle.png"",""images/Blue_Triangle.png"",""images/Blue_Circle.png"",""images/Blue_Circle.png"",""images/Red_Circle.png""]","true","[[25,200],[140,249],[240,173],[224,49],[109,0],[9,76]]","false",""
"visual-search-circle","46","2.2.0","192389","79192","visual_search_trial","742","","j","","","","","","","","","","null","blue_triangle","1","[""images/Blue_Triangle.png"",""images/Blue_Triangle.png"",""images/Blue_Triangle.png""]","true","[[27,203],[241,169],[105,1]]","false",""
"visual-search-circle","47","2.2.0","194741","79192","visual_search_trial","847","","f","","","","","","","","","","null","red_circle","1","[""images/Red_Triangle.png"",""images/Red_Circle.png"",""images/Red_Circle.png"",""images/Red_Circle.png"",""images/Red_Circle.png"",""images/Red_Circle.png""]","true","[[187,16],[62,16],[0,125],[62,233],[187,233],[250,125]]","true",""
"visual-search-circle","48","2.2.0","204668","79192","visual_search_trial","8422","","f","","","","","","","","","","null","red_blue_mix","1","[""images/Red_Triangle.png"",""images/Blue_Triangle.png"",""images/Red_Circle.png"",""images/Red_Circle.png"",""images/Blue_Triangle.png"",""images/Blue_Circle.png""]","true","[[96,246],[216,210],[244,88],[153,3],[33,39],[5,161]]","true",""
"visual-search-circle","49","2.2.0","207122","79192","visual_search_trial","947","","j","","","","","","","","","","null","red_circle","1","[""images/Red_Circle.png"",""images/Red_Circle.png"",""images/Red_Circle.png"",""images/Red_Circle.png"",""images/Red_Circle.png"",""images/Red_Circle.png"",""images/Red_Circle.png"",""images/Red_Circle.png"",""images/Red_Circle.png""]","true","[[165,6],[80,8],[15,64],[2,148],[46,222],[127,249],[207,219],[248,144],[232,60]]","false",""
"visual-search-circle","50","2.2.0","209566","79192","visual_search_trial","941","","f","","","","","","","","","","null","blue_triangle","1","[""images/Red_Triangle.png"",""images/Blue_Triangle.png"",""images/Blue_Triangle.png""]","true","[[127,249],[232,60],[15,64]]","true",""
"html-keyboard-response","51","2.1.0","213639","79192","break","4071","<p>Great job so far! Please rest for a few seconds before continuing.</p>
                 <p>Press the <strong>G</strong> key on your keyboard to continue.</p>","g","","","","","","","","","","","","","","","","","G"
"visual-search-circle","52","2.2.0","217094","79192","visual_search_trial","1950","","f","","","","","","","","","","null","red_blue_mix","2","[""images/Red_Triangle.png"",""images/Blue_Circle.png"",""images/Blue_Circle.png"",""images/Blue_Circle.png"",""images/Blue_Triangle.png"",""images/Red_Circle.png""]","true","[[129,0],[18,58],[14,183],[120,249],[231,191],[235,66]]","true",""
"visual-search-circle","53","2.2.0","219383","79192","visual_search_trial","786","","j","","","","","","","","","","null","red_circle","2","[""images/Red_Circle.png"",""images/Red_Circle.png"",""images/Red_Circle.png""]","true","[[153,3],[5,161],[216,210]]","false",""
"visual-search-circle","54","2.2.0","221855","79192","visual_search_trial","966","","f","","","","","","","","","","null","blue_triangle","2","[""images/Red_Triangle.png"",""images/Blue_Triangle.png"",""images/Blue_Triangle.png"",""images/Blue_Triangle.png"",""images/Blue_Triangle.png"",""images/Blue_Triangle.png"",""images/Blue_Triangle.png"",""images/Blue_Triangle.png"",""images/Blue_Triangle.png""]","true","[[239,74],[179,12],[94,3],[23,51],[0,133],[35,211],[111,249],[194,228],[245,159]]","true",""
"visual-search-circle","55","2.2.0","224745","79192","visual_search_trial","1386","","j","","","","","","","","","","null","red_blue_mix","2","[""images/Blue_Triangle.png"",""images/Blue_Circle.png"",""images/Red_Circle.png"",""images/Red_Circle.png"",""images/Red_Circle.png"",""images/Blue_Triangle.png""]","true","[[148,247],[243,165],[219,42],[101,2],[6,84],[30,207]]","false",""
"visual-search-circle","56","2.2.0","227086","79192","visual_search_trial","838","","f","","","","","","","","","","null","red_circle","2","[""images/Red_Triangle.png"",""images/Red_Circle.png"",""images/Red_Circle.png""]","true","[[244,88],[33,39],[96,246]]","true",""
"visual-search-circle","57","2.2.0","229361","79192","visual_search_trial","771","","f","","","","","","","","","","null","blue_triangle","2","[""images/Red_Triangle.png"",""images/Blue_Triangle.png"",""images/Blue_Triangle.png"",""images/Blue_Triangle.png"",""images/Blue_Triangle.png"",""images/Blue_Triangle.png""]","true","[[250,125],[187,16],[62,16],[0,125],[62,233],[187,233]]","true",""
"visual-search-circle","58","2.2.0","232602","79192","visual_search_trial","1736","","j","","","","","","","","","","null","red_blue_mix","2","[""images/Red_Circle.png"",""images/Blue_Circle.png"",""images/Blue_Triangle.png"",""images/Blue_Triangle.png"",""images/Blue_Triangle.png"",""images/Blue_Triangle.png"",""images/Red_Circle.png"",""images/Blue_Triangle.png"",""images/Blue_Triangle.png""]","true","[[6,86],[9,171],[66,235],[150,247],[223,201],[249,120],[217,41],[142,1],[58,18]]","false",""
"visual-search-circle","59","2.2.0","234723","79192","visual_search_trial","615","","j","","","","","","","","","","null","red_circle","2","[""images/Red_Circle.png"",""images/Red_Circle.png"",""images/Red_Circle.png"",""images/Red_Circle.png"",""images/Red_Circle.png"",""images/Red_Circle.png"",""images/Red_Circle.png"",""images/Red_Circle.png"",""images/Red_Circle.png""]","true","[[249,111],[211,35],[133,0],[51,23],[3,94],[12,179],[74,239],[159,245],[228,194]]","false",""
"visual-search-circle","60","2.2.0","237058","79192","visual_search_trial","832","","f","","","","","","","","","","null","blue_triangle","2","[""images/Red_Triangle.png"",""images/Blue_Triangle.png"",""images/Blue_Triangle.png""]","true","[[76,9],[49,224],[249,140]]","true",""
"visual-search-circle","61","2.2.0","239193","79192","visual_search_trial","631","","j","","","","","","","","","","null","red_blue_mix","2","[""images/Blue_Circle.png"",""images/Blue_Circle.png"",""images/Blue_Circle.png""]","true","[[38,35],[90,245],[246,94]]","false",""
"visual-search-circle","62","2.2.0","241214","79192","visual_search_trial","517","","j","","","","","","","","","","null","blue_triangle","2","[""images/Blue_Triangle.png"",""images/Blue_Triangle.png"",""images/Blue_Triangle.png""]","true","[[0,118],[181,236],[193,20]]","false",""
"visual-search-circle","63","2.2.0","243594","79192","visual_search_trial","876","","j","","","","","","","","","","null","red_circle","2","[""images/Red_Circle.png"",""images/Red_Circle.png"",""images/Red_Circle.png"",""images/Red_Circle.png"",""images/Red_Circle.png"",""images/Red_Circle.png""]","true","[[48,223],[171,240],[248,142],[201,26],[78,9],[1,107]]","false",""
"visual-search-circle","64","2.2.0","245727","79192","visual_search_trial","628","","j","","","","","","","","","","null","blue_triangle","2","[""images/Blue_Triangle.png"",""images/Blue_Triangle.png"",""images/Blue_Triangle.png"",""images/Blue_Triangle.png"",""images/Blue_Triangle.png"",""images/Blue_Triangle.png"",""images/Blue_Triangle.png"",""images/Blue_Triangle.png"",""images/Blue_Triangle.png""]","true","[[175,239],[237,179],[246,94],[198,23],[116,0],[38,35],[0,111],[21,194],[90,245]]","false",""
"visual-search-circle","65","2.2.0","247978","79192","visual_search_trial","747","","f","","","","","","","","","","null","red_blue_mix","2","[""images/Red_Triangle.png"",""images/Blue_Triangle.png"",""images/Red_Circle.png""]","true","[[35,211],[245,159],[94,3]]","true",""
"visual-search-circle","66","2.2.0","250345","79192","visual_search_trial","863","","f","","","","","","","","","","null","red_circle","2","[""images/Red_Triangle.png"",""images/Red_Circle.png"",""images/Red_Circle.png"",""images/Red_Circle.png"",""images/Red_Circle.png"",""images/Red_Circle.png""]","true","[[229,56],[118,0],[13,68],[20,193],[131,249],[236,181]]","true",""
"visual-search-circle","67","2.2.0","252580","79192","visual_search_trial","731","","j","","","","","","","","","","null","blue_triangle","2","[""images/Blue_Triangle.png"",""images/Blue_Triangle.png"",""images/Blue_Triangle.png"",""images/Blue_Triangle.png"",""images/Blue_Triangle.png"",""images/Blue_Triangle.png""]","true","[[129,0],[18,58],[14,183],[120,249],[231,191],[235,66]]","false",""
"visual-search-circle","68","2.2.0","255296","79192","visual_search_trial","1210","","f","","","","","","","","","","null","red_blue_mix","2","[""images/Red_Triangle.png"",""images/Blue_Triangle.png"",""images/Blue_Circle.png"",""images/Blue_Circle.png"",""images/Blue_Triangle.png"",""images/Red_Circle.png"",""images/Blue_Circle.png"",""images/Blue_Circle.png"",""images/Blue_Circle.png""]","true","[[0,122],[27,203],[101,247],[185,234],[241,169],[243,84],[189,17],[105,1],[30,42]]","true",""
"visual-search-circle","69","2.2.0","257625","79192","visual_search_trial","823","","f","","","","","","","","","","null","red_circle","2","[""images/Red_Triangle.png"",""images/Red_Circle.png"",""images/Red_Circle.png"",""images/Red_Circle.png"",""images/Red_Circle.png"",""images/Red_Circle.png"",""images/Red_Circle.png"",""images/Red_Circle.png"",""images/Red_Circle.png""]","true","[[0,129],[32,208],[107,248],[191,231],[243,163],[240,78],[183,14],[99,2],[26,48]]","true",""
"visual-search-circle","70","2.2.0","260243","79192","visual_search_trial","1115","","j","","","","","","","","","","null","red_blue_mix","3","[""images/Red_Circle.png"",""images/Blue_Triangle.png"",""images/Blue_Triangle.png"",""images/Red_Circle.png"",""images/Red_Circle.png"",""images/Blue_Triangle.png""]","true","[[231,191],[235,66],[129,0],[18,58],[14,183],[120,249]]","false",""
"visual-search-circle","71","2.2.0","262684","79192","visual_search_trial","936","","f","","","","","","","","","","null","blue_triangle","3","[""images/Red_Triangle.png"",""images/Blue_Triangle.png"",""images/Blue_Triangle.png"",""images/Blue_Triangle.png"",""images/Blue_Triangle.png"",""images/Blue_Triangle.png"",""images/Blue_Triangle.png"",""images/Blue_Triangle.png"",""images/Blue_Triangle.png""]","true","[[249,114],[213,36],[135,0],[53,22],[4,92],[11,177],[72,238],[157,245],[227,196]]","true",""
"visual-search-circle","72","2.2.0","264948","79192","visual_search_trial","760","","f","","","","","","","","","","null","red_circle","3","[""images/Red_Triangle.png"",""images/Red_Circle.png"",""images/Red_Circle.png"",""images/Red_Circle.png"",""images/Red_Circle.png"",""images/Red_Circle.png""]","true","[[245,159],[214,38],[94,3],[4,90],[35,211],[155,246]]","true",""
"visual-search-circle","73","2.2.0","267596","79192","visual_search_trial","1145","","f","","","","","","","","","","null","blue_triangle","3","[""images/Red_Triangle.png"",""images/Blue_Triangle.png"",""images/Blue_Triangle.png""]","true","[[16,62],[125,250],[233,62]]","true",""
"visual-search-circle","74","2.2.0","270248","79192","visual_search_trial","1146","","j","","","","","","","","","","null","red_circle","3","[""images/Red_Circle.png"",""images/Red_Circle.png"",""images/Red_Circle.png"",""images/Red_Circle.png"",""images/Red_Circle.png"",""images/Red_Circle.png"",""images/Red_Circle.png"",""images/Red_Circle.png"",""images/Red_Circle.png""]","true","[[196,227],[245,157],[238,72],[177,11],[92,4],[22,53],[0,135],[36,213],[114,249]]","false",""
"visual-search-circle","75","2.2.0","272615","79192","visual_search_trial","862","","j","","","","","","","","","","null","red_blue_mix","3","[""images/Blue_Circle.png"",""images/Blue_Circle.png"",""images/Red_Circle.png""]","true","[[201,223],[171,9],[1,142]]","false",""
"visual-search-circle","76","2.2.0","274766","79192","visual_search_trial","647","","j","","","","","","","","","","null","red_circle","3","[""images/Red_Circle.png"",""images/Red_Circle.png"",""images/Red_Circle.png"",""images/Red_Circle.png"",""images/Red_Circle.png"",""images/Red_Circle.png""]","true","[[20,193],[131,249],[236,181],[229,56],[118,0],[13,68]]","false",""
"visual-search-circle","77","2.2.0","277162","79192","visual_search_trial","892","","f","","","","","","","","","","null","red_blue_mix","3","[""images/Red_Triangle.png"",""images/Blue_Circle.png"",""images/Red_Circle.png"",""images/Blue_Circle.png"",""images/Blue_Triangle.png"",""images/Blue_Circle.png""]","true","[[60,232],[185,234],[249,127],[189,17],[64,15],[0,122]]","true",""
"visual-search-circle","78","2.2.0","279689","79192","visual_search_trial","1023","","j","","","","","","","","","","null","red_circle","3","[""images/Red_Circle.png"",""images/Red_Circle.png"",""images/Red_Circle.png""]","true","[[241,80],[27,46],[105,248]]","false",""
"visual-search-circle","79","2.2.0","281841","79192","visual_search_trial","648","","j","","","","","","","","","","null","blue_triangle","3","[""images/Blue_Triangle.png"",""images/Blue_Triangle.png"",""images/Blue_Triangle.png"",""images/Blue_Triangle.png"",""images/Blue_Triangle.png"",""images/Blue_Triangle.png""]","true","[[20,56],[13,181],[118,249],[229,193],[236,68],[131,0]]","false",""
"visual-search-circle","80","2.2.0","284222","79192","visual_search_trial","875","","j","","","","","","","","","","null","red_blue_mix","3","[""images/Blue_Triangle.png"",""images/Blue_Circle.png"",""images/Blue_Circle.png"",""images/Red_Circle.png"",""images/Blue_Circle.png"",""images/Blue_Circle.png"",""images/Blue_Circle.png"",""images/Blue_Triangle.png"",""images/Blue_Circle.png""]","true","[[227,196],[249,114],[213,36],[135,0],[53,22],[4,92],[11,177],[72,238],[157,245]]","false",""
"visual-search-circle","81","2.2.0","286541","79192","visual_search_trial","813","","f","","","","","","","","","","null","red_circle","3","[""images/Red_Triangle.png"",""images/Red_Circle.png"",""images/Red_Circle.png"",""images/Red_Circle.png"",""images/Red_Circle.png"",""images/Red_Circle.png"",""images/Red_Circle.png"",""images/Red_Circle.png"",""images/Red_Circle.png""]","true","[[9,173],[68,236],[153,246],[224,200],[249,118],[216,39],[140,0],[56,20],[5,88]]","true",""
"visual-search-circle","82","2.2.0","290253","79192","visual_search_trial","2208","","f","","","","","","","","","","null","red_blue_mix","3","[""images/Red_Triangle.png"",""images/Blue_Triangle.png"",""images/Red_Circle.png""]","true","[[243,165],[101,2],[30,207]]","true",""
"visual-search-circle","83","2.2.0","293865","79192","visual_search_trial","2109","","j","","","","","","","","","","null","blue_triangle","3","[""images/Blue_Triangle.png"",""images/Blue_Triangle.png"",""images/Blue_Triangle.png""]","true","[[217,41],[6,86],[150,247]]","false",""
"visual-search-circle","84","2.2.0","296279","79192","visual_search_trial","910","","f","","","","","","","","","","null","red_circle","3","[""images/Red_Triangle.png"",""images/Red_Circle.png"",""images/Red_Circle.png""]","true","[[205,220],[167,7],[1,146]]","true",""
"visual-search-circle","85","2.2.0","298797","79192","visual_search_trial","1013","","f","","","","","","","","","","null","blue_triangle","3","[""images/Red_Triangle.png"",""images/Blue_Triangle.png"",""images/Blue_Triangle.png"",""images/Blue_Triangle.png"",""images/Blue_Triangle.png"",""images/Blue_Triangle.png""]","true","[[6,165],[101,247],[219,207],[243,84],[148,2],[30,42]]","true",""
"visual-search-circle","86","2.2.0","301704","79192","visual_search_trial","1402","","f","","","","","","","","","","null","red_blue_mix","3","[""images/Red_Triangle.png"",""images/Red_Circle.png"",""images/Blue_Circle.png"",""images/Red_Circle.png"",""images/Red_Circle.png"",""images/Red_Circle.png"",""images/Red_Circle.png"",""images/Blue_Triangle.png"",""images/Blue_Triangle.png""]","true","[[236,181],[246,96],[200,25],[118,0],[39,33],[0,109],[20,193],[88,244],[173,240]]","true",""
"visual-search-circle","87","2.2.0","306673","79192","visual_search_trial","3464","","j","","","","","","","","","","null","blue_triangle","3","[""images/Blue_Triangle.png"",""images/Blue_Triangle.png"",""images/Blue_Triangle.png"",""images/Blue_Triangle.png"",""images/Blue_Triangle.png"",""images/Blue_Triangle.png"",""images/Blue_Triangle.png"",""images/Blue_Triangle.png"",""images/Blue_Triangle.png""]","true","[[62,233],[146,248],[220,205],[250,125],[220,44],[146,1],[62,16],[7,82],[7,167]]","false",""
"html-keyboard-response","88","2.1.0","343915","79192","break","37240","<p>Great job so far! Please rest for a few seconds before continuing.</p>
                 <p>Press the <strong>L</strong> key on your keyboard to continue.</p>","l","","","","","","","","","","","","","","","","","L"
"visual-search-circle","89","2.2.0","346430","79192","visual_search_trial","1010","","f","","","","","","","","","","null","red_circle","4","[""images/Red_Triangle.png"",""images/Red_Circle.png"",""images/Red_Circle.png"",""images/Red_Circle.png"",""images/Red_Circle.png"",""images/Red_Circle.png"",""images/Red_Circle.png"",""images/Red_Circle.png"",""images/Red_Circle.png""]","true","[[232,60],[165,6],[80,8],[15,64],[2,148],[46,222],[127,249],[207,219],[248,144]]","true",""
"visual-search-circle","90","2.2.0","349202","79192","visual_search_trial","1267","","f","","","","","","","","","","null","red_blue_mix","4","[""images/Red_Triangle.png"",""images/Blue_Triangle.png"",""images/Red_Circle.png"",""images/Red_Circle.png"",""images/Blue_Triangle.png"",""images/Red_Circle.png""]","true","[[219,42],[101,2],[6,84],[30,207],[148,247],[243,165]]","true",""
"visual-search-circle","91","2.2.0","352529","79192","visual_search_trial","1824","","j","","","","","","","","","","null","blue_triangle","4","[""images/Blue_Triangle.png"",""images/Blue_Triangle.png"",""images/Blue_Triangle.png""]","true","[[167,7],[1,146],[205,220]]","false",""
"visual-search-circle","92","2.2.0","355887","79192","visual_search_trial","1852","","j","","","","","","","","","","null","red_blue_mix","4","[""images/Blue_Circle.png"",""images/Blue_Triangle.png"",""images/Red_Circle.png"",""images/Red_Circle.png"",""images/Blue_Triangle.png"",""images/Red_Circle.png"",""images/Red_Circle.png"",""images/Red_Circle.png"",""images/Red_Circle.png""]","true","[[84,6],[17,60],[1,144],[42,219],[122,249],[203,222],[247,148],[234,64],[169,8]]","false",""
"visual-search-circle","93","2.2.0","357972","79192","visual_search_trial","580","","j","","","","","","","","","","null","red_circle","4","[""images/Red_Circle.png"",""images/Red_Circle.png"",""images/Red_Circle.png"",""images/Red_Circle.png"",""images/Red_Circle.png"",""images/Red_Circle.png"",""images/Red_Circle.png"",""images/Red_Circle.png"",""images/Red_Circle.png""]","true","[[68,13],[9,76],[5,161],[56,229],[140,249],[216,210],[249,131],[224,49],[153,3]]","false",""
"visual-search-circle","94","2.2.0","359963","79192","visual_search_trial","487","","j","","","","","","","","","","null","blue_triangle","4","[""images/Blue_Triangle.png"",""images/Blue_Triangle.png"",""images/Blue_Triangle.png"",""images/Blue_Triangle.png"",""images/Blue_Triangle.png"",""images/Blue_Triangle.png"",""images/Blue_Triangle.png"",""images/Blue_Triangle.png"",""images/Blue_Triangle.png""]","true","[[249,133],[226,51],[155,3],[70,12],[10,74],[4,159],[55,228],[138,249],[214,211]]","false",""
"visual-search-circle","95","2.2.0","362392","79192","visual_search_trial","925","","f","","","","","","","","","","null","red_blue_mix","4","[""images/Red_Triangle.png"",""images/Blue_Triangle.png"",""images/Blue_Triangle.png""]","true","[[78,240],[248,107],[48,26]]","true",""
"visual-search-circle","96","2.2.0","365550","79192","visual_search_trial","1655","","j","","","","","","","","","","null","blue_triangle","4","[""images/Blue_Triangle.png"",""images/Blue_Triangle.png"",""images/Blue_Triangle.png"",""images/Blue_Triangle.png"",""images/Blue_Triangle.png"",""images/Blue_Triangle.png""]","true","[[58,18],[0,129],[66,235],[191,231],[249,120],[183,14]]","false",""
"visual-search-circle","97","2.2.0","367953","79192","visual_search_trial","900","","f","","","","","","","","","","null","red_circle","4","[""images/Red_Triangle.png"",""images/Red_Circle.png"",""images/Red_Circle.png""]","true","[[0,118],[181,236],[193,20]]","true",""
"visual-search-circle","98","2.2.0","370403","79192","visual_search_trial","946","","j","","","","","","","","","","null","red_blue_mix","4","[""images/Red_Circle.png"",""images/Blue_Triangle.png"",""images/Red_Circle.png""]","true","[[88,5],[39,216],[246,153]]","false",""
"visual-search-circle","99","2.2.0","372943","79192","visual_search_trial","1035","","f","","","","","","","","","","null","blue_triangle","4","[""images/Red_Triangle.png"",""images/Blue_Triangle.png"",""images/Blue_Triangle.png"",""images/Blue_Triangle.png"",""images/Blue_Triangle.png"",""images/Blue_Triangle.png"",""images/Blue_Triangle.png"",""images/Blue_Triangle.png"",""images/Blue_Triangle.png""]","true","[[11,72],[4,157],[53,227],[135,249],[213,213],[249,135],[227,53],[157,4],[72,11]]","true",""
"visual-search-circle","100","2.2.0","376359","79192","visual_search_trial","1912","","j","","","","","","","","","","null","red_blue_mix","4","[""images/Red_Circle.png"",""images/Blue_Triangle.png"",""images/Blue_Triangle.png"",""images/Blue_Circle.png"",""images/Red_Circle.png"",""images/Blue_Triangle.png""]","true","[[6,163],[99,247],[217,208],[243,86],[150,2],[32,41]]","false",""
"visual-search-circle","101","2.2.0","378813","79192","visual_search_trial","951","","f","","","","","","","","","","null","red_circle","4","[""images/Red_Triangle.png"",""images/Red_Circle.png"",""images/Red_Circle.png"",""images/Red_Circle.png"",""images/Red_Circle.png"",""images/Red_Circle.png""]","true","[[240,76],[140,0],[25,49],[9,173],[109,249],[224,200]]","true",""
"visual-search-circle","102","2.2.0","381180","79192","visual_search_trial","863","","f","","","","","","","","","","null","blue_triangle","4","[""images/Red_Triangle.png"",""images/Blue_Triangle.png"",""images/Blue_Triangle.png""]","true","[[233,187],[125,0],[16,187]]","true",""
"visual-search-circle","103","2.2.0","383907","79192","visual_search_trial","1223","","j","","","","","","","","","","null","red_circle","4","[""images/Red_Circle.png"",""images/Red_Circle.png"",""images/Red_Circle.png""]","true","[[76,9],[49,224],[249,140]]","false",""
"visual-search-circle","104","2.2.0","386513","79192","visual_search_trial","1100","","f","","","","","","","","","","null","red_blue_mix","4","[""images/Red_Triangle.png"",""images/Red_Circle.png"",""images/Blue_Triangle.png"",""images/Blue_Triangle.png"",""images/Blue_Triangle.png"",""images/Blue_Triangle.png"",""images/Blue_Triangle.png"",""images/Blue_Circle.png"",""images/Blue_Triangle.png""]","true","[[55,21],[4,90],[10,175],[70,237],[155,246],[226,198],[249,116],[214,38],[138,0]]","true",""
"visual-search-circle","105","2.2.0","389405","79192","visual_search_trial","1387","","f","","","","","","","","","","null","blue_triangle","4","[""images/Red_Triangle.png"",""images/Blue_Triangle.png"",""images/Blue_Triangle.png"",""images/Blue_Triangle.png"",""images/Blue_Triangle.png"",""images/Blue_Triangle.png""]","true","[[249,140],[200,25],[76,9],[0,109],[49,224],[173,240]]","true",""
"visual-search-circle","106","2.2.0","391738","79192","visual_search_trial","829","","j","","","","","","","","","","null","red_circle","4","[""images/Red_Circle.png"",""images/Red_Circle.png"",""images/Red_Circle.png"",""images/Red_Circle.png"",""images/Red_Circle.png"",""images/Red_Circle.png""]","true","[[157,4],[36,36],[4,157],[92,245],[213,213],[245,92]]","false",""
"visual-search-circle","107","2.2.0","394496","79192","visual_search_trial","1255","","j","","","","","","","","","","null","red_blue_mix","5","[""images/Blue_Triangle.png"",""images/Blue_Triangle.png"",""images/Blue_Triangle.png""]","true","[[118,249],[236,68],[20,56]]","false",""
"visual-search-circle","108","2.2.0","397234","79192","visual_search_trial","1234","","f","","","","","","","","","","null","blue_triangle","5","[""images/Red_Triangle.png"",""images/Blue_Triangle.png"",""images/Blue_Triangle.png"",""images/Blue_Triangle.png"",""images/Blue_Triangle.png"",""images/Blue_Triangle.png""]","true","[[32,208],[150,247],[243,163],[217,41],[99,2],[6,86]]","true",""
"visual-search-circle","109","2.2.0","399502","79192","visual_search_trial","764","","f","","","","","","","","","","null","red_circle","5","[""images/Red_Triangle.png"",""images/Red_Circle.png"",""images/Red_Circle.png"",""images/Red_Circle.png"",""images/Red_Circle.png"",""images/Red_Circle.png""]","true","[[7,167],[103,248],[220,205],[242,82],[146,1],[29,44]]","true",""
"visual-search-circle","110","2.2.0","401772","79192","visual_search_trial","764","","f","","","","","","","","","","null","blue_triangle","5","[""images/Red_Triangle.png"",""images/Blue_Triangle.png"",""images/Blue_Triangle.png"",""images/Blue_Triangle.png"",""images/Blue_Triangle.png"",""images/Blue_Triangle.png"",""images/Blue_Triangle.png"",""images/Blue_Triangle.png"",""images/Blue_Triangle.png""]","true","[[9,78],[6,163],[58,231],[142,248],[217,208],[249,129],[223,48],[150,2],[66,14]]","true",""
"visual-search-circle","111","2.2.0","404054","79192","visual_search_trial","779","","f","","","","","","","","","","null","red_blue_mix","5","[""images/Red_Triangle.png"",""images/Red_Circle.png"",""images/Blue_Circle.png""]","true","[[90,4],[38,214],[246,155]]","true",""
"visual-search-circle","112","2.2.0","406278","79192","visual_search_trial","720","","j","","","","","","","","","","null","red_circle","5","[""images/Red_Circle.png"",""images/Red_Circle.png"",""images/Red_Circle.png"",""images/Red_Circle.png"",""images/Red_Circle.png"",""images/Red_Circle.png""]","true","[[224,200],[240,76],[140,0],[25,49],[9,173],[109,249]]","false",""
"visual-search-circle","113","2.2.0","409665","79192","visual_search_trial","1881","","j","","","","","","","","","","null","red_blue_mix","5","[""images/Blue_Circle.png"",""images/Red_Circle.png"",""images/Red_Circle.png"",""images/Blue_Circle.png"",""images/Blue_Circle.png"",""images/Blue_Circle.png"",""images/Blue_Triangle.png"",""images/Blue_Circle.png"",""images/Red_Circle.png""]","true","[[248,107],[208,32],[129,0],[48,26],[2,99],[14,183],[78,240],[163,243],[231,191]]","false",""
"visual-search-circle","114","2.2.0","411640","79192","visual_search_trial","471","","j","","","","","","","","","","null","blue_triangle","5","[""images/Blue_Triangle.png"",""images/Blue_Triangle.png"",""images/Blue_Triangle.png""]","true","[[111,249],[239,74],[23,51]]","false",""
"visual-search-circle","115","2.2.0","413675","79192","visual_search_trial","531","","j","","","","","","","","","","null","red_circle","5","[""images/Red_Circle.png"",""images/Red_Circle.png"",""images/Red_Circle.png""]","true","[[70,12],[55,228],[249,133]]","false",""
"visual-search-circle","116","2.2.0","415647","79192","visual_search_trial","468","","j","","","","","","","","","","null","blue_triangle","5","[""images/Blue_Triangle.png"",""images/Blue_Triangle.png"",""images/Blue_Triangle.png"",""images/Blue_Triangle.png"",""images/Blue_Triangle.png"",""images/Blue_Triangle.png""]","true","[[213,36],[92,4],[4,92],[36,213],[157,245],[245,157]]","false",""
"visual-search-circle","117","2.2.0","418111","79192","visual_search_trial","960","","j","","","","","","","","","","null","red_blue_mix","5","[""images/Red_Circle.png"",""images/Red_Circle.png"",""images/Blue_Circle.png"",""images/Blue_Circle.png"",""images/Blue_Triangle.png"",""images/Blue_Triangle.png""]","true","[[4,157],[92,245],[213,213],[245,92],[157,4],[36,36]]","false",""
"visual-search-circle","118","2.2.0","420432","79192","visual_search_trial","816","","f","","","","","","","","","","null","red_circle","5","[""images/Red_Triangle.png"",""images/Red_Circle.png"",""images/Red_Circle.png"",""images/Red_Circle.png"",""images/Red_Circle.png"",""images/Red_Circle.png"",""images/Red_Circle.png"",""images/Red_Circle.png"",""images/Red_Circle.png""]","true","[[244,161],[240,76],[181,13],[96,3],[25,49],[0,131],[33,210],[109,249],[193,229]]","true",""
"visual-search-circle","119","2.2.0","422663","79192","visual_search_trial","726","","j","","","","","","","","","","null","blue_triangle","5","[""images/Blue_Triangle.png"",""images/Blue_Triangle.png"",""images/Blue_Triangle.png"",""images/Blue_Triangle.png"",""images/Blue_Triangle.png"",""images/Blue_Triangle.png"",""images/Blue_Triangle.png"",""images/Blue_Triangle.png"",""images/Blue_Triangle.png""]","true","[[0,109],[20,193],[88,244],[173,240],[236,181],[246,96],[200,25],[118,0],[39,33]]","false",""
"visual-search-circle","120","2.2.0","424793","79192","visual_search_trial","625","","j","","","","","","","","","","null","red_circle","5","[""images/Red_Circle.png"",""images/Red_Circle.png"",""images/Red_Circle.png"",""images/Red_Circle.png"",""images/Red_Circle.png"",""images/Red_Circle.png"",""images/Red_Circle.png"",""images/Red_Circle.png"",""images/Red_Circle.png""]","true","[[179,237],[239,175],[245,90],[194,21],[111,0],[35,38],[0,116],[23,198],[94,246]]","false",""
"visual-search-circle","121","2.2.0","427077","79192","visual_search_trial","778","","f","","","","","","","","","","null","red_blue_mix","5","[""images/Red_Triangle.png"",""images/Blue_Triangle.png"",""images/Blue_Circle.png"",""images/Blue_Circle.png"",""images/Blue_Triangle.png"",""images/Blue_Triangle.png""]","true","[[88,244],[210,216],[246,96],[161,5],[39,33],[3,153]]","true",""
"visual-search-circle","122","2.2.0","429322","79192","visual_search_trial","742","","f","","","","","","","","","","null","blue_triangle","5","[""images/Red_Triangle.png"",""images/Blue_Triangle.png"",""images/Blue_Triangle.png""]","true","[[249,127],[64,15],[60,232]]","true",""
"visual-search-circle","123","2.2.0","431781","79192","visual_search_trial","954","","f","","","","","","","","","","null","red_blue_mix","5","[""images/Red_Triangle.png"",""images/Blue_Triangle.png"",""images/Red_Circle.png"",""images/Blue_Triangle.png"",""images/Blue_Triangle.png"",""images/Red_Circle.png"",""images/Blue_Triangle.png"",""images/Blue_Circle.png"",""images/Blue_Circle.png""]","true","[[6,163],[58,231],[142,248],[217,208],[249,129],[223,48],[150,2],[66,14],[9,78]]","true",""
"visual-search-circle","124","2.2.0","433997","79192","visual_search_trial","713","","f","","","","","","","","","","null","red_circle","5","[""images/Red_Triangle.png"",""images/Red_Circle.png"",""images/Red_Circle.png""]","true","[[17,189],[234,185],[122,0]]","true",""
"html-keyboard-response","125","2.1.0","436934","79192","break","2935","<p>Great job so far! Please rest for a few seconds before continuing.</p>
                 <p>Press the <strong>Y</strong> key on your keyboard to continue.</p>","y","","","","","","","","","","","","","","","","","Y"
"visual-search-circle","126","2.2.0","439687","79192","visual_search_trial","1249","","j","","","","","","","","","","null","blue_triangle","6","[""images/Blue_Triangle.png"",""images/Blue_Triangle.png"",""images/Blue_Triangle.png"",""images/Blue_Triangle.png"",""images/Blue_Triangle.png"",""images/Blue_Triangle.png""]","true","[[246,94],[159,4],[38,35],[3,155],[90,245],[211,214]]","false",""
"visual-search-circle","127","2.2.0","442176","79192","visual_search_trial","986","","f","","","","","","","","","","null","red_blue_mix","6","[""images/Red_Triangle.png"",""images/Red_Circle.png"",""images/Blue_Triangle.png"",""images/Blue_Triangle.png"",""images/Blue_Circle.png"",""images/Blue_Triangle.png""]","true","[[181,13],[56,20],[0,131],[68,236],[193,229],[249,118]]","true",""
"visual-search-circle","128","2.2.0","444580","79192","visual_search_trial","901","","j","","","","","","","","","","null","red_circle","6","[""images/Red_Circle.png"",""images/Red_Circle.png"",""images/Red_Circle.png""]","true","[[243,165],[101,2],[30,207]]","false",""
"visual-search-circle","129","2.2.0","447101","79192","visual_search_trial","1016","","f","","","","","","","","","","null","red_blue_mix","6","[""images/Red_Triangle.png"",""images/Red_Circle.png"",""images/Red_Circle.png"",""images/Blue_Circle.png"",""images/Red_Circle.png"",""images/Blue_Circle.png"",""images/Blue_Triangle.png"",""images/Blue_Triangle.png"",""images/Red_Circle.png""]","true","[[165,6],[80,8],[15,64],[2,148],[46,222],[127,249],[207,219],[248,144],[232,60]]","true",""
"visual-search-circle","130","2.2.0","449493","79192","visual_search_trial","888","","f","","","","","","","","","","null","red_circle","6","[""images/Red_Triangle.png"",""images/Red_Circle.png"",""images/Red_Circle.png"",""images/Red_Circle.png"",""images/Red_Circle.png"",""images/Red_Circle.png""]","true","[[80,8],[1,105],[46,222],[169,241],[248,144],[203,27]]","true",""
"visual-search-circle","131","2.2.0","451732","79192","visual_search_trial","735","","j","","","","","","","","","","null","red_blue_mix","6","[""images/Blue_Triangle.png"",""images/Blue_Triangle.png"",""images/Blue_Circle.png"",""images/Blue_Circle.png"",""images/Blue_Triangle.png"",""images/Blue_Triangle.png""]","true","[[2,99],[41,217],[163,243],[247,150],[208,32],[86,6]]","false",""
"visual-search-circle","132","2.2.0","453821","79192","visual_search_trial","584","","j","","","","","","","","","","null","red_circle","6","[""images/Red_Circle.png"",""images/Red_Circle.png"",""images/Red_Circle.png"",""images/Red_Circle.png"",""images/Red_Circle.png"",""images/Red_Circle.png"",""images/Red_Circle.png"",""images/Red_Circle.png"",""images/Red_Circle.png""]","true","[[249,133],[226,51],[155,3],[70,12],[10,74],[4,159],[55,228],[138,249],[214,211]]","false",""
"visual-search-circle","133","2.2.0","456752","79192","visual_search_trial","1428","","f","","","","","","","","","","null","red_blue_mix","6","[""images/Red_Triangle.png"",""images/Red_Circle.png"",""images/Blue_Circle.png""]","true","[[240,173],[109,0],[25,200]]","true",""
"visual-search-circle","134","2.2.0","459031","79192","visual_search_trial","775","","f","","","","","","","","","","null","blue_triangle","6","[""images/Red_Triangle.png"",""images/Blue_Triangle.png"",""images/Blue_Triangle.png"",""images/Blue_Triangle.png"",""images/Blue_Triangle.png"",""images/Blue_Triangle.png""]","true","[[131,0],[20,56],[13,181],[118,249],[229,193],[236,68]]","true",""
"visual-search-circle","135","2.2.0","461436","79192","visual_search_trial","899","","f","","","","","","","","","","null","red_circle","6","[""images/Red_Triangle.png"",""images/Red_Circle.png"",""images/Red_Circle.png"",""images/Red_Circle.png"",""images/Red_Circle.png"",""images/Red_Circle.png"",""images/Red_Circle.png"",""images/Red_Circle.png"",""images/Red_Circle.png""]","true","[[163,6],[78,9],[14,66],[2,150],[48,223],[129,249],[208,217],[248,142],[231,58]]","true",""
"visual-search-circle","136","2.2.0","463694","79192","visual_search_trial","755","","f","","","","","","","","","","null","blue_triangle","6","[""images/Red_Triangle.png"",""images/Blue_Triangle.png"",""images/Blue_Triangle.png""]","true","[[235,66],[18,58],[120,249]]","true",""
"visual-search-circle","137","2.2.0","466265","79192","visual_search_trial","1067","","j","","","","","","","","","","null","red_circle","6","[""images/Red_Circle.png"",""images/Red_Circle.png"",""images/Red_Circle.png"",""images/Red_Circle.png"",""images/Red_Circle.png"",""images/Red_Circle.png""]","true","[[120,0],[14,66],[18,191],[129,249],[235,183],[231,58]]","false",""
"visual-search-circle","138","2.2.0","468747","79192","visual_search_trial","978","","j","","","","","","","","","","null","red_blue_mix","6","[""images/Blue_Circle.png"",""images/Red_Circle.png"",""images/Blue_Triangle.png""]","true","[[60,232],[249,127],[64,15]]","false",""
"visual-search-circle","139","2.2.0","470742","79192","visual_search_trial","492","","j","","","","","","","","","","null","blue_triangle","6","[""images/Blue_Triangle.png"",""images/Blue_Triangle.png"",""images/Blue_Triangle.png""]","true","[[46,27],[80,241],[248,105]]","false",""
"visual-search-circle","140","2.2.0","473108","79192","visual_search_trial","861","","j","","","","","","","","","","null","red_blue_mix","6","[""images/Blue_Circle.png"",""images/Blue_Triangle.png"",""images/Blue_Circle.png"",""images/Red_Circle.png"",""images/Blue_Circle.png"",""images/Red_Circle.png"",""images/Red_Circle.png"",""images/Red_Circle.png"",""images/Blue_Circle.png""]","true","[[1,107],[18,191],[86,243],[171,240],[235,183],[247,99],[201,26],[120,0],[41,32]]","false",""
"visual-search-circle","141","2.2.0","475555","79192","visual_search_trial","942","","f","","","","","","","","","","null","blue_triangle","6","[""images/Red_Triangle.png"",""images/Blue_Triangle.png"",""images/Blue_Triangle.png"",""images/Blue_Triangle.png"",""images/Blue_Triangle.png"",""images/Blue_Triangle.png"",""images/Blue_Triangle.png"",""images/Blue_Triangle.png"",""images/Blue_Triangle.png""]","true","[[70,237],[155,246],[226,198],[249,116],[214,38],[138,0],[55,21],[4,90],[10,175]]","true",""
"visual-search-circle","142","2.2.0","477929","79192","visual_search_trial","871","","f","","","","","","","","","","null","red_circle","6","[""images/Red_Triangle.png"",""images/Red_Circle.png"",""images/Red_Circle.png""]","true","[[198,226],[175,10],[0,138]]","true",""
"visual-search-circle","143","2.2.0","480108","79192","visual_search_trial","673","","j","","","","","","","","","","null","blue_triangle","6","[""images/Blue_Triangle.png"",""images/Blue_Triangle.png"",""images/Blue_Triangle.png"",""images/Blue_Triangle.png"",""images/Blue_Triangle.png"",""images/Blue_Triangle.png"",""images/Blue_Triangle.png"",""images/Blue_Triangle.png"",""images/Blue_Triangle.png""]","true","[[181,13],[96,3],[25,49],[0,131],[33,210],[109,249],[193,229],[244,161],[240,76]]","false",""
"visual-search-circle","144","2.2.0","482091","79192","visual_search_trial","477","","j","","","","","","","","","","null","red_circle","7","[""images/Red_Circle.png"",""images/Red_Circle.png"",""images/Red_Circle.png"",""images/Red_Circle.png"",""images/Red_Circle.png"",""images/Red_Circle.png""]","true","[[0,125],[62,233],[187,233],[250,125],[187,16],[62,16]]","false",""
"visual-search-circle","145","2.2.0","484384","79192","visual_search_trial","788","","f","","","","","","","","","","null","red_blue_mix","7","[""images/Red_Triangle.png"",""images/Blue_Circle.png"",""images/Blue_Triangle.png"",""images/Red_Circle.png"",""images/Blue_Triangle.png"",""images/Red_Circle.png""]","true","[[0,135],[72,238],[196,227],[249,114],[177,11],[53,22]]","true",""
"visual-search-circle","146","2.2.0","486618","79192","visual_search_trial","730","","j","","","","","","","","","","null","red_circle","7","[""images/Red_Circle.png"",""images/Red_Circle.png"",""images/Red_Circle.png""]","true","[[171,9],[1,142],[201,223]]","false",""
"visual-search-circle","147","2.2.0","488960","79192","visual_search_trial","838","","f","","","","","","","","","","null","red_blue_mix","7","[""images/Red_Triangle.png"",""images/Blue_Circle.png"",""images/Blue_Circle.png"",""images/Blue_Circle.png"",""images/Blue_Circle.png"",""images/Red_Circle.png"",""images/Red_Circle.png"",""images/Blue_Circle.png"",""images/Blue_Circle.png""]","true","[[171,240],[235,183],[247,99],[201,26],[120,0],[41,32],[1,107],[18,191],[86,243]]","true",""
"visual-search-circle","148","2.2.0","491692","79192","visual_search_trial","1228","","j","","","","","","","","","","null","blue_triangle","7","[""images/Blue_Triangle.png"",""images/Blue_Triangle.png"",""images/Blue_Triangle.png""]","true","[[227,196],[135,0],[11,177]]","false",""
"visual-search-circle","149","2.2.0","494046","79192","visual_search_trial","850","","f","","","","","","","","","","null","red_circle","7","[""images/Red_Triangle.png"",""images/Red_Circle.png"",""images/Red_Circle.png"",""images/Red_Circle.png"",""images/Red_Circle.png"",""images/Red_Circle.png"",""images/Red_Circle.png"",""images/Red_Circle.png"",""images/Red_Circle.png""]","true","[[2,150],[48,223],[129,249],[208,217],[248,142],[231,58],[163,6],[78,9],[14,66]]","true",""
"visual-search-circle","150","2.2.0","496695","79192","visual_search_trial","1144","","j","","","","","","","","","","null","red_blue_mix","7","[""images/Red_Circle.png"",""images/Blue_Circle.png"",""images/Blue_Circle.png"",""images/Red_Circle.png"",""images/Blue_Triangle.png"",""images/Red_Circle.png"",""images/Red_Circle.png"",""images/Blue_Triangle.png"",""images/Blue_Triangle.png""]","true","[[0,129],[32,208],[107,248],[191,231],[243,163],[240,78],[183,14],[99,2],[26,48]]","false",""
"visual-search-circle","151","2.2.0","499043","79192","visual_search_trial","844","","f","","","","","","","","","","null","blue_triangle","7","[""images/Red_Triangle.png"",""images/Blue_Triangle.png"",""images/Blue_Triangle.png""]","true","[[236,68],[20,56],[118,249]]","true",""
"visual-search-circle","152","2.2.0","501422","79192","visual_search_trial","876","","j","","","","","","","","","","null","red_blue_mix","7","[""images/Blue_Circle.png"",""images/Blue_Triangle.png"",""images/Red_Circle.png""]","true","[[247,101],[42,30],[84,243]]","false",""
"visual-search-circle","153","2.2.0","503416","79192","visual_search_trial","489","","j","","","","","","","","","","null","red_circle","7","[""images/Red_Circle.png"",""images/Red_Circle.png"",""images/Red_Circle.png"",""images/Red_Circle.png"",""images/Red_Circle.png"",""images/Red_Circle.png"",""images/Red_Circle.png"",""images/Red_Circle.png"",""images/Red_Circle.png""]","true","[[234,64],[169,8],[84,6],[17,60],[1,144],[42,219],[122,249],[203,222],[247,148]]","false",""
"visual-search-circle","154","2.2.0","505330","79192","visual_search_trial","410","","j","","","","","","","","","","null","blue_triangle","7","[""images/Blue_Triangle.png"",""images/Blue_Triangle.png"",""images/Blue_Triangle.png"",""images/Blue_Triangle.png"",""images/Blue_Triangle.png"",""images/Blue_Triangle.png""]","true","[[181,236],[249,131],[193,20],[68,13],[0,118],[56,229]]","false",""
"visual-search-circle","155","2.2.0","507573","79192","visual_search_trial","740","","f","","","","","","","","","","null","red_blue_mix","7","[""images/Red_Triangle.png"",""images/Red_Circle.png"",""images/Blue_Triangle.png""]","true","[[0,127],[189,232],[185,15]]","true",""
"visual-search-circle","156","2.2.0","509720","79192","visual_search_trial","643","","f","","","","","","","","","","null","red_circle","7","[""images/Red_Triangle.png"",""images/Red_Circle.png"",""images/Red_Circle.png"",""images/Red_Circle.png"",""images/Red_Circle.png"",""images/Red_Circle.png""]","true","[[4,92],[36,213],[157,245],[245,157],[213,36],[92,4]]","true",""
"visual-search-circle","157","2.2.0","511879","79192","visual_search_trial","654","","j","","","","","","","","","","null","blue_triangle","7","[""images/Blue_Triangle.png"",""images/Blue_Triangle.png"",""images/Blue_Triangle.png"",""images/Blue_Triangle.png"",""images/Blue_Triangle.png"",""images/Blue_Triangle.png"",""images/Blue_Triangle.png"",""images/Blue_Triangle.png"",""images/Blue_Triangle.png""]","true","[[198,226],[246,155],[237,70],[175,10],[90,4],[21,55],[0,138],[38,214],[116,249]]","false",""
"visual-search-circle","158","2.2.0","514147","79192","visual_search_trial","765","","f","","","","","","","","","","null","red_circle","7","[""images/Red_Triangle.png"",""images/Red_Circle.png"",""images/Red_Circle.png""]","true","[[32,41],[99,247],[243,86]]","true",""
"visual-search-circle","159","2.2.0","516376","79192","visual_search_trial","723","","f","","","","","","","","","","null","blue_triangle","7","[""images/Red_Triangle.png"",""images/Blue_Triangle.png"",""images/Blue_Triangle.png"",""images/Blue_Triangle.png"",""images/Blue_Triangle.png"",""images/Blue_Triangle.png"",""images/Blue_Triangle.png"",""images/Blue_Triangle.png"",""images/Blue_Triangle.png""]","true","[[103,1],[29,44],[0,125],[29,205],[103,248],[187,233],[242,167],[242,82],[187,16]]","true",""
"visual-search-circle","160","2.2.0","518615","79192","visual_search_trial","735","","j","","","","","","","","","","null","red_blue_mix","7","[""images/Blue_Circle.png"",""images/Blue_Circle.png"",""images/Blue_Circle.png"",""images/Blue_Circle.png"",""images/Red_Circle.png"",""images/Blue_Circle.png""]","true","[[109,0],[9,76],[25,200],[140,249],[240,173],[224,49]]","false",""
"visual-search-circle","161","2.2.0","522008","79192","visual_search_trial","1888","","f","","","","","","","","","","null","blue_triangle","7","[""images/Red_Triangle.png"",""images/Blue_Triangle.png"",""images/Blue_Triangle.png"",""images/Blue_Triangle.png"",""images/Blue_Triangle.png"",""images/Blue_Triangle.png""]","true","[[55,228],[179,237],[249,133],[194,21],[70,12],[0,116]]","true",""
"html-keyboard-response","162","2.1.0","523780","79192","break","1770","<p>Great job so far! Please rest for a few seconds before continuing.</p>
                 <p>Press the <strong>I</strong> key on your keyboard to continue.</p>","i","","","","","","","","","","","","","","","","","I"
"visual-search-circle","163","2.2.0","527797","79192","visual_search_trial","2513","","j","","","","","","","","","","null","red_circle","8","[""images/Red_Circle.png"",""images/Red_Circle.png"",""images/Red_Circle.png""]","true","[[51,23],[74,239],[249,111]]","false",""
"visual-search-circle","164","2.2.0","531219","79192","visual_search_trial","1916","","j","","","","","","","","","","null","red_blue_mix","8","[""images/Blue_Circle.png"",""images/Blue_Circle.png"",""images/Blue_Triangle.png"",""images/Blue_Triangle.png"",""images/Blue_Triangle.png"",""images/Red_Circle.png"",""images/Blue_Circle.png"",""images/Blue_Circle.png"",""images/Blue_Triangle.png""]","true","[[140,0],[56,20],[5,88],[9,173],[68,236],[153,246],[224,200],[249,118],[216,39]]","false",""
"visual-search-circle","165","2.2.0","533260","79192","visual_search_trial","537","","j","","","","","","","","","","null","red_circle","8","[""images/Red_Circle.png"",""images/Red_Circle.png"",""images/Red_Circle.png"",""images/Red_Circle.png"",""images/Red_Circle.png"",""images/Red_Circle.png""]","true","[[5,161],[96,246],[216,210],[244,88],[153,3],[33,39]]","false",""
"visual-search-circle","166","2.2.0","535709","79192","visual_search_trial","945","","f","","","","","","","","","","null","blue_triangle","8","[""images/Red_Triangle.png"",""images/Blue_Triangle.png"",""images/Blue_Triangle.png"",""images/Blue_Triangle.png"",""images/Blue_Triangle.png"",""images/Blue_Triangle.png""]","true","[[140,0],[25,49],[9,173],[109,249],[224,200],[240,76]]","true",""
"visual-search-circle","167","2.2.0","537716","79192","visual_search_trial","502","","j","","","","","","","","","","null","red_blue_mix","8","[""images/Red_Circle.png"",""images/Red_Circle.png"",""images/Blue_Circle.png""]","true","[[25,49],[109,249],[240,76]]","false",""
"visual-search-circle","168","2.2.0","540029","79192","visual_search_trial","810","","f","","","","","","","","","","null","red_circle","8","[""images/Red_Triangle.png"",""images/Red_Circle.png"",""images/Red_Circle.png"",""images/Red_Circle.png"",""images/Red_Circle.png"",""images/Red_Circle.png""]","true","[[224,49],[109,0],[9,76],[25,200],[140,249],[240,173]]","true",""
"visual-search-circle","169","2.2.0","542043","79192","visual_search_trial","509","","j","","","","","","","","","","null","blue_triangle","8","[""images/Blue_Triangle.png"",""images/Blue_Triangle.png"",""images/Blue_Triangle.png"",""images/Blue_Triangle.png"",""images/Blue_Triangle.png"",""images/Blue_Triangle.png"",""images/Blue_Triangle.png"",""images/Blue_Triangle.png"",""images/Blue_Triangle.png""]","true","[[214,38],[138,0],[55,21],[4,90],[10,175],[70,237],[155,246],[226,198],[249,116]]","false",""
"visual-search-circle","170","2.2.0","544364","79192","visual_search_trial","817","","f","","","","","","","","","","null","red_blue_mix","8","[""images/Red_Triangle.png"",""images/Blue_Triangle.png"",""images/Blue_Circle.png"",""images/Red_Circle.png"",""images/Blue_Triangle.png"",""images/Red_Circle.png""]","true","[[0,120],[58,231],[183,235],[249,129],[191,18],[66,14]]","true",""
"visual-search-circle","171","2.2.0","546678","79192","visual_search_trial","810","","j","","","","","","","","","","null","blue_triangle","8","[""images/Blue_Triangle.png"",""images/Blue_Triangle.png"",""images/Blue_Triangle.png"",""images/Blue_Triangle.png"",""images/Blue_Triangle.png"",""images/Blue_Triangle.png""]","true","[[219,42],[101,2],[6,84],[30,207],[148,247],[243,165]]","false",""
"visual-search-circle","172","2.2.0","549071","79192","visual_search_trial","889","","f","","","","","","","","","","null","red_circle","8","[""images/Red_Triangle.png"",""images/Red_Circle.png"",""images/Red_Circle.png""]","true","[[183,14],[0,129],[191,231]]","true",""
"visual-search-circle","173","2.2.0","551940","79192","visual_search_trial","1365","","j","","","","","","","","","","null","red_blue_mix","8","[""images/Blue_Triangle.png"",""images/Blue_Triangle.png"",""images/Blue_Triangle.png"",""images/Blue_Circle.png"",""images/Blue_Circle.png"",""images/Blue_Circle.png""]","true","[[249,114],[177,11],[53,22],[0,135],[72,238],[196,227]]","false",""
"visual-search-circle","174","2.2.0","554641","79192","visual_search_trial","1195","","f","","","","","","","","","","null","blue_triangle","8","[""images/Red_Triangle.png"",""images/Blue_Triangle.png"",""images/Blue_Triangle.png"",""images/Blue_Triangle.png"",""images/Blue_Triangle.png"",""images/Blue_Triangle.png"",""images/Blue_Triangle.png"",""images/Blue_Triangle.png"",""images/Blue_Triangle.png""]","true","[[227,53],[157,4],[72,11],[11,72],[4,157],[53,227],[135,249],[213,213],[249,135]]","true",""
"visual-search-circle","175","2.2.0","557261","79192","visual_search_trial","1117","","j","","","","","","","","","","null","red_blue_mix","8","[""images/Red_Triangle.png"",""images/Blue_Triangle.png"",""images/Blue_Triangle.png""]","false","[[0,131],[193,229],[181,13]]","true",""
"visual-search-circle","176","2.2.0","559840","79192","visual_search_trial","1075","","f","","","","","","","","","","null","blue_triangle","8","[""images/Red_Triangle.png"",""images/Blue_Triangle.png"",""images/Blue_Triangle.png""]","true","[[42,30],[84,243],[247,101]]","true",""
"visual-search-circle","177","2.2.0","562003","79192","visual_search_trial","657","","j","","","","","","","","","","null","red_circle","8","[""images/Red_Circle.png"",""images/Red_Circle.png"",""images/Red_Circle.png"",""images/Red_Circle.png"",""images/Red_Circle.png"",""images/Red_Circle.png"",""images/Red_Circle.png"",""images/Red_Circle.png"",""images/Red_Circle.png""]","true","[[201,223],[247,150],[235,66],[171,9],[86,6],[18,58],[1,142],[41,217],[120,249]]","false",""
"visual-search-circle","178","2.2.0","564688","79192","visual_search_trial","1178","","f","","","","","","","","","","null","red_blue_mix","8","[""images/Red_Triangle.png"",""images/Red_Circle.png"",""images/Blue_Circle.png"",""images/Blue_Triangle.png"",""images/Blue_Circle.png"",""images/Blue_Circle.png"",""images/Blue_Circle.png"",""images/Blue_Triangle.png"",""images/Blue_Circle.png""]","true","[[196,227],[245,157],[238,72],[177,11],[92,4],[22,53],[0,135],[36,213],[114,249]]","true",""
"visual-search-circle","179","2.2.0","567624","79192","visual_search_trial","1430","","f","","","","","","","","","","null","red_circle","8","[""images/Red_Triangle.png"",""images/Red_Circle.png"",""images/Red_Circle.png"",""images/Red_Circle.png"",""images/Red_Circle.png"",""images/Red_Circle.png"",""images/Red_Circle.png"",""images/Red_Circle.png"",""images/Red_Circle.png""]","true","[[248,144],[232,60],[165,6],[80,8],[15,64],[2,148],[46,222],[127,249],[207,219]]","true",""
"visual-search-circle","180","2.2.0","569929","79192","visual_search_trial","801","","j","","","","","","","","","","null","blue_triangle","8","[""images/Blue_Triangle.png"",""images/Blue_Triangle.png"",""images/Blue_Triangle.png""]","true","[[177,238],[196,22],[0,114]]","false",""
"visual-search-circle","181","2.2.0","571988","79192","visual_search_trial","556","","j","","","","","","","","","","null","blue_triangle","9","[""images/Blue_Triangle.png"",""images/Blue_Triangle.png"",""images/Blue_Triangle.png""]","true","[[14,183],[231,191],[129,0]]","false",""
"visual-search-circle","182","2.2.0","574120","79192","visual_search_trial","626","","j","","","","","","","","","","null","red_circle","9","[""images/Red_Circle.png"",""images/Red_Circle.png"",""images/Red_Circle.png"",""images/Red_Circle.png"",""images/Red_Circle.png"",""images/Red_Circle.png"",""images/Red_Circle.png"",""images/Red_Circle.png"",""images/Red_Circle.png""]","true","[[0,111],[21,194],[90,245],[175,239],[237,179],[246,94],[198,23],[116,0],[38,35]]","false",""
"visual-search-circle","183","2.2.0","576396","79192","visual_search_trial","772","","f","","","","","","","","","","null","blue_triangle","9","[""images/Red_Triangle.png"",""images/Blue_Triangle.png"",""images/Blue_Triangle.png""]","true","[[196,227],[177,11],[0,135]]","true",""
"visual-search-circle","184","2.2.0","578907","79192","visual_search_trial","1005","","f","","","","","","","","","","null","red_circle","9","[""images/Red_Triangle.png"",""images/Red_Circle.png"",""images/Red_Circle.png"",""images/Red_Circle.png"",""images/Red_Circle.png"",""images/Red_Circle.png"",""images/Red_Circle.png"",""images/Red_Circle.png"",""images/Red_Circle.png""]","true","[[90,245],[175,239],[237,179],[246,94],[198,23],[116,0],[38,35],[0,111],[21,194]]","true",""
"visual-search-circle","185","2.2.0","581260","79192","visual_search_trial","848","","f","","","","","","","","","","null","red_blue_mix","9","[""images/Red_Triangle.png"",""images/Blue_Triangle.png"",""images/Blue_Triangle.png""]","true","[[248,144],[80,8],[46,222]]","true",""
"visual-search-circle","186","2.2.0","583946","79192","visual_search_trial","1183","","j","","","","","","","","","","null","red_circle","9","[""images/Red_Circle.png"",""images/Red_Circle.png"",""images/Red_Circle.png""]","true","[[1,144],[203,222],[169,8]]","false",""
"visual-search-circle","187","2.2.0","586273","79192","visual_search_trial","823","","f","","","","","","","","","","null","blue_triangle","9","[""images/Red_Triangle.png"",""images/Blue_Triangle.png"",""images/Blue_Triangle.png"",""images/Blue_Triangle.png"",""images/Blue_Triangle.png"",""images/Blue_Triangle.png""]","true","[[6,165],[101,247],[219,207],[243,84],[148,2],[30,42]]","true",""
"visual-search-circle","188","2.2.0","588794","79192","visual_search_trial","1017","","f","","","","","","","","","","null","red_blue_mix","9","[""images/Red_Triangle.png"",""images/Red_Circle.png"",""images/Blue_Triangle.png"",""images/Blue_Triangle.png"",""images/Blue_Triangle.png"",""images/Red_Circle.png""]","true","[[194,228],[249,116],[179,12],[55,21],[0,133],[70,237]]","true",""
"visual-search-circle","189","2.2.0","591506","79192","visual_search_trial","1208","","j","","","","","","","","","","null","blue_triangle","9","[""images/Blue_Triangle.png"",""images/Blue_Triangle.png"",""images/Blue_Triangle.png"",""images/Blue_Triangle.png"",""images/Blue_Triangle.png"",""images/Blue_Triangle.png"",""images/Blue_Triangle.png"",""images/Blue_Triangle.png"",""images/Blue_Triangle.png""]","true","[[231,58],[163,6],[78,9],[14,66],[2,150],[48,223],[129,249],[208,217],[248,142]]","false",""
"visual-search-circle","190","2.2.0","593857","79192","visual_search_trial","846","","j","","","","","","","","","","null","red_blue_mix","9","[""images/Blue_Circle.png"",""images/Red_Circle.png"",""images/Blue_Circle.png""]","true","[[213,36],[4,92],[157,245]]","false",""
"visual-search-circle","191","2.2.0","596284","79192","visual_search_trial","922","","f","","","","","","","","","","null","blue_triangle","9","[""images/Red_Triangle.png"",""images/Blue_Triangle.png"",""images/Blue_Triangle.png"",""images/Blue_Triangle.png"",""images/Blue_Triangle.png"",""images/Blue_Triangle.png"",""images/Blue_Triangle.png"",""images/Blue_Triangle.png"",""images/Blue_Triangle.png""]","true","[[82,242],[167,242],[233,187],[248,103],[205,29],[125,0],[44,29],[1,103],[16,187]]","true",""
"visual-search-circle","192","2.2.0","599162","79192","visual_search_trial","1374","","j","","","","","","","","","","null","red_blue_mix","9","[""images/Red_Circle.png"",""images/Blue_Triangle.png"",""images/Blue_Circle.png"",""images/Blue_Circle.png"",""images/Blue_Triangle.png"",""images/Blue_Circle.png"",""images/Blue_Triangle.png"",""images/Blue_Triangle.png"",""images/Blue_Triangle.png""]","true","[[249,120],[217,41],[142,1],[58,18],[6,86],[9,171],[66,235],[150,247],[223,201]]","false",""
"visual-search-circle","193","2.2.0","601767","79192","visual_search_trial","1101","","j","","","","","","","","","","null","red_circle","9","[""images/Red_Circle.png"",""images/Red_Circle.png"",""images/Red_Circle.png"",""images/Red_Circle.png"",""images/Red_Circle.png"",""images/Red_Circle.png""]","true","[[226,51],[111,0],[10,74],[23,198],[138,249],[239,175]]","false",""
"visual-search-circle","194","2.2.0","604409","79192","visual_search_trial","1136","","f","","","","","","","","","","null","red_blue_mix","9","[""images/Red_Triangle.png"",""images/Blue_Circle.png"",""images/Red_Circle.png"",""images/Red_Circle.png"",""images/Blue_Triangle.png"",""images/Blue_Circle.png"",""images/Blue_Triangle.png"",""images/Red_Circle.png"",""images/Blue_Triangle.png""]","true","[[82,242],[167,242],[233,187],[248,103],[205,29],[125,0],[44,29],[1,103],[16,187]]","true",""
"visual-search-circle","195","2.2.0","607590","79192","visual_search_trial","1678","","f","","","","","","","","","","null","red_circle","9","[""images/Red_Triangle.png"",""images/Red_Circle.png"",""images/Red_Circle.png"",""images/Red_Circle.png"",""images/Red_Circle.png"",""images/Red_Circle.png""]","true","[[246,153],[210,33],[88,5],[3,96],[39,216],[161,244]]","true",""
"visual-search-circle","196","2.2.0","610137","79192","visual_search_trial","1043","","j","","","","","","","","","","null","red_blue_mix","9","[""images/Blue_Triangle.png"",""images/Blue_Circle.png"",""images/Red_Circle.png"",""images/Blue_Triangle.png"",""images/Red_Circle.png"",""images/Red_Circle.png""]","true","[[2,150],[86,243],[208,217],[247,99],[163,6],[41,32]]","false",""
"visual-search-circle","197","2.2.0","612669","79192","visual_search_trial","1028","","f","","","","","","","","","","null","red_circle","9","[""images/Red_Triangle.png"",""images/Red_Circle.png"",""images/Red_Circle.png""]","true","[[39,216],[246,153],[88,5]]","true",""
"visual-search-circle","198","2.2.0","614977","79192","visual_search_trial","803","","j","","","","","","","","","","null","blue_triangle","9","[""images/Blue_Triangle.png"",""images/Blue_Triangle.png"",""images/Blue_Triangle.png"",""images/Blue_Triangle.png"",""images/Blue_Triangle.png"",""images/Blue_Triangle.png""]","true","[[72,238],[196,227],[249,114],[177,11],[53,22],[0,135]]","false",""
"html-keyboard-response","199","2.1.0","617334","79192","break","2355","<p>Great job so far! Please rest for a few seconds before continuing.</p>
                 <p>Press the <strong>B</strong> key on your keyboard to continue.</p>","b","","","","","","","","","","","","","","","","","B"
"visual-search-circle","200","2.2.0","619991","79192","visual_search_trial","1151","","f","","","","","","","","","","null","blue_triangle","10","[""images/Red_Triangle.png"",""images/Blue_Triangle.png"",""images/Blue_Triangle.png"",""images/Blue_Triangle.png"",""images/Blue_Triangle.png"",""images/Blue_Triangle.png"",""images/Blue_Triangle.png"",""images/Blue_Triangle.png"",""images/Blue_Triangle.png""]","true","[[241,169],[243,84],[189,17],[105,1],[30,42],[0,122],[27,203],[101,247],[185,234]]","true",""
"visual-search-circle","201","2.2.0","622401","79192","visual_search_trial","905","","j","","","","","","","","","","null","red_circle","10","[""images/Red_Circle.png"",""images/Red_Circle.png"",""images/Red_Circle.png"",""images/Red_Circle.png"",""images/Red_Circle.png"",""images/Red_Circle.png"",""images/Red_Circle.png"",""images/Red_Circle.png"",""images/Red_Circle.png""]","true","[[207,30],[127,0],[46,27],[2,101],[15,185],[80,241],[165,243],[232,189],[248,105]]","false",""
"visual-search-circle","202","2.2.0","624726","79192","visual_search_trial","821","","f","","","","","","","","","","null","red_blue_mix","10","[""images/Red_Triangle.png"",""images/Red_Circle.png"",""images/Red_Circle.png""]","true","[[120,0],[18,191],[235,183]]","true",""
"visual-search-circle","203","2.2.0","627001","79192","visual_search_trial","771","","f","","","","","","","","","","null","red_circle","10","[""images/Red_Triangle.png"",""images/Red_Circle.png"",""images/Red_Circle.png"",""images/Red_Circle.png"",""images/Red_Circle.png"",""images/Red_Circle.png""]","true","[[249,127],[189,17],[64,15],[0,122],[60,232],[185,234]]","true",""
"visual-search-circle","204","2.2.0","629029","79192","visual_search_trial","524","","f","","","","","","","","","","null","blue_triangle","10","[""images/Red_Triangle.png"",""images/Blue_Triangle.png"",""images/Blue_Triangle.png""]","true","[[4,157],[213,213],[157,4]]","true",""
"visual-search-circle","205","2.2.0","631052","79192","visual_search_trial","520","","f","","","","","","","","","","null","red_circle","10","[""images/Red_Triangle.png"",""images/Red_Circle.png"",""images/Red_Circle.png""]","true","[[249,131],[68,13],[56,229]]","true",""
"visual-search-circle","206","2.2.0","634030","79192","visual_search_trial","1473","","j","","","","","","","","","","null","red_blue_mix","10","[""images/Blue_Circle.png"",""images/Blue_Triangle.png"",""images/Red_Circle.png"",""images/Blue_Triangle.png"",""images/Red_Circle.png"",""images/Blue_Triangle.png"",""images/Red_Circle.png"",""images/Blue_Triangle.png"",""images/Blue_Circle.png""]","true","[[193,20],[109,0],[33,39],[0,118],[25,200],[96,246],[181,236],[240,173],[244,88]]","false",""
"visual-search-circle","207","2.2.0","636136","79192","visual_search_trial","602","","j","","","","","","","","","","null","blue_triangle","10","[""images/Blue_Triangle.png"",""images/Blue_Triangle.png"",""images/Blue_Triangle.png"",""images/Blue_Triangle.png"",""images/Blue_Triangle.png"",""images/Blue_Triangle.png""]","true","[[53,227],[177,238],[249,135],[196,22],[72,11],[0,114]]","false",""
"visual-search-circle","208","2.2.0","638374","79192","visual_search_trial","735","","j","","","","","","","","","","null","red_blue_mix","10","[""images/Blue_Circle.png"",""images/Blue_Circle.png"",""images/Red_Circle.png""]","true","[[20,193],[236,181],[118,0]]","false",""
"visual-search-circle","209","2.2.0","640576","79192","visual_search_trial","698","","f","","","","","","","","","","null","blue_triangle","10","[""images/Red_Triangle.png"",""images/Blue_Triangle.png"",""images/Blue_Triangle.png"",""images/Blue_Triangle.png"",""images/Blue_Triangle.png"",""images/Blue_Triangle.png""]","true","[[157,4],[36,36],[4,157],[92,245],[213,213],[245,92]]","true",""
"visual-search-circle","210","2.2.0","642827","79192","visual_search_trial","746","","f","","","","","","","","","","null","red_blue_mix","10","[""images/Red_Triangle.png"",""images/Blue_Triangle.png"",""images/Red_Circle.png"",""images/Red_Circle.png"",""images/Blue_Triangle.png"",""images/Blue_Circle.png"",""images/Red_Circle.png"",""images/Red_Circle.png"",""images/Red_Circle.png""]","true","[[8,169],[64,234],[148,247],[222,203],[249,122],[219,42],[144,1],[60,17],[6,84]]","true",""
"visual-search-circle","211","2.2.0","645225","79192","visual_search_trial","893","","j","","","","","","","","","","null","blue_triangle","10","[""images/Blue_Triangle.png"",""images/Blue_Triangle.png"",""images/Blue_Triangle.png"",""images/Blue_Triangle.png"",""images/Blue_Triangle.png"",""images/Blue_Triangle.png"",""images/Blue_Triangle.png"",""images/Blue_Triangle.png"",""images/Blue_Triangle.png""]","true","[[39,33],[0,109],[20,193],[88,244],[173,240],[236,181],[246,96],[200,25],[118,0]]","false",""
"visual-search-circle","212","2.2.0","647403","79192","visual_search_trial","675","","j","","","","","","","","","","null","red_circle","10","[""images/Red_Circle.png"",""images/Red_Circle.png"",""images/Red_Circle.png""]","true","[[114,249],[238,72],[22,53]]","false",""
"visual-search-circle","213","2.2.0","649382","79192","visual_search_trial","476","","j","","","","","","","","","","null","blue_triangle","10","[""images/Blue_Triangle.png"",""images/Blue_Triangle.png"",""images/Blue_Triangle.png""]","true","[[153,3],[5,161],[216,210]]","false",""
"visual-search-circle","214","2.2.0","651763","79192","visual_search_trial","876","","f","","","","","","","","","","null","red_circle","10","[""images/Red_Triangle.png"",""images/Red_Circle.png"",""images/Red_Circle.png"",""images/Red_Circle.png"",""images/Red_Circle.png"",""images/Red_Circle.png"",""images/Red_Circle.png"",""images/Red_Circle.png"",""images/Red_Circle.png""]","true","[[74,10],[12,70],[3,155],[51,226],[133,249],[211,214],[249,138],[228,55],[159,4]]","true",""
"visual-search-circle","215","2.2.0","654097","79192","visual_search_trial","830","","f","","","","","","","","","","null","red_blue_mix","10","[""images/Red_Triangle.png"",""images/Blue_Circle.png"",""images/Blue_Circle.png"",""images/Blue_Triangle.png"",""images/Red_Circle.png"",""images/Blue_Triangle.png""]","true","[[1,144],[80,241],[203,222],[248,105],[169,8],[46,27]]","true",""
"visual-search-circle","216","2.2.0","656267","79192","visual_search_trial","667","","j","","","","","","","","","","null","red_circle","10","[""images/Red_Circle.png"",""images/Red_Circle.png"",""images/Red_Circle.png"",""images/Red_Circle.png"",""images/Red_Circle.png"",""images/Red_Circle.png""]","true","[[12,70],[21,194],[133,249],[237,179],[228,55],[116,0]]","false",""
"visual-search-circle","217","2.2.0","658592","79192","visual_search_trial","820","","j","","","","","","","","","","null","red_blue_mix","10","[""images/Blue_Circle.png"",""images/Blue_Circle.png"",""images/Red_Circle.png"",""images/Blue_Triangle.png"",""images/Blue_Circle.png"",""images/Blue_Circle.png""]","true","[[181,13],[56,20],[0,131],[68,236],[193,229],[249,118]]","false",""
"visual-search-circle","218","2.2.0","660920","79192","visual_search_trial","824","","f","","","","","","","","","","null","blue_triangle","11","[""images/Red_Triangle.png"",""images/Blue_Triangle.png"",""images/Blue_Triangle.png"",""images/Blue_Triangle.png"",""images/Blue_Triangle.png"",""images/Blue_Triangle.png""]","true","[[76,9],[0,109],[49,224],[173,240],[249,140],[200,25]]","true",""
"visual-search-circle","219","2.2.0","663095","79192","visual_search_trial","670","","j","","","","","","","","","","null","red_circle","11","[""images/Red_Circle.png"",""images/Red_Circle.png"",""images/Red_Circle.png"",""images/Red_Circle.png"",""images/Red_Circle.png"",""images/Red_Circle.png"",""images/Red_Circle.png"",""images/Red_Circle.png"",""images/Red_Circle.png""]","true","[[9,171],[66,235],[150,247],[223,201],[249,120],[217,41],[142,1],[58,18],[6,86]]","false",""
"visual-search-circle","220","2.2.0","666047","79192","visual_search_trial","1448","","f","","","","","","","","","","null","red_blue_mix","11","[""images/Red_Triangle.png"",""images/Red_Circle.png"",""images/Blue_Triangle.png""]","true","[[161,244],[210,33],[3,96]]","true",""
"visual-search-circle","221","2.2.0","668213","79192","visual_search_trial","662","","j","","","","","","","","","","null","red_circle","11","[""images/Red_Circle.png"",""images/Red_Circle.png"",""images/Red_Circle.png""]","true","[[248,144],[80,8],[46,222]]","false",""
"visual-search-circle","222","2.2.0","670480","79192","visual_search_trial","764","","f","","","","","","","","","","null","blue_triangle","11","[""images/Red_Triangle.png"",""images/Blue_Triangle.png"",""images/Blue_Triangle.png""]","true","[[0,120],[183,235],[191,18]]","true",""
"visual-search-circle","223","2.2.0","672740","79192","visual_search_trial","755","","f","","","","","","","","","","null","red_circle","11","[""images/Red_Triangle.png"",""images/Red_Circle.png"",""images/Red_Circle.png"",""images/Red_Circle.png"",""images/Red_Circle.png"",""images/Red_Circle.png"",""images/Red_Circle.png"",""images/Red_Circle.png"",""images/Red_Circle.png""]","true","[[33,210],[109,249],[193,229],[244,161],[240,76],[181,13],[96,3],[25,49],[0,131]]","true",""
"visual-search-circle","224","2.2.0","675140","79192","visual_search_trial","896","","j","","","","","","","","","","null","red_blue_mix","11","[""images/Red_Triangle.png"",""images/Blue_Circle.png"",""images/Red_Circle.png"",""images/Blue_Triangle.png"",""images/Blue_Triangle.png"",""images/Blue_Circle.png""]","false","[[244,88],[153,3],[33,39],[5,161],[96,246],[216,210]]","true",""
"visual-search-circle","225","2.2.0","677303","79192","visual_search_trial","659","","j","","","","","","","","","","null","blue_triangle","11","[""images/Blue_Triangle.png"",""images/Blue_Triangle.png"",""images/Blue_Triangle.png""]","true","[[133,0],[12,179],[228,194]]","false",""
"visual-search-circle","226","2.2.0","679931","79192","visual_search_trial","1123","","f","","","","","","","","","","null","red_blue_mix","11","[""images/Red_Triangle.png"",""images/Red_Circle.png"",""images/Blue_Circle.png"",""images/Blue_Circle.png"",""images/Blue_Circle.png"",""images/Blue_Circle.png"",""images/Blue_Triangle.png"",""images/Blue_Circle.png"",""images/Blue_Circle.png""]","true","[[249,127],[222,46],[148,2],[64,15],[8,80],[6,165],[60,232],[144,248],[219,207]]","true",""
"visual-search-circle","227","2.2.0","682156","79192","visual_search_trial","721","","j","","","","","","","","","","null","red_circle","11","[""images/Red_Circle.png"",""images/Red_Circle.png"",""images/Red_Circle.png"",""images/Red_Circle.png"",""images/Red_Circle.png"",""images/Red_Circle.png""]","true","[[226,51],[111,0],[10,74],[23,198],[138,249],[239,175]]","false",""
"visual-search-circle","228","2.2.0","684304","79192","visual_search_trial","645","","j","","","","","","","","","","null","blue_triangle","11","[""images/Blue_Triangle.png"",""images/Blue_Triangle.png"",""images/Blue_Triangle.png"",""images/Blue_Triangle.png"",""images/Blue_Triangle.png"",""images/Blue_Triangle.png""]","true","[[56,229],[181,236],[249,131],[193,20],[68,13],[0,118]]","false",""
"visual-search-circle","229","2.2.0","686703","79192","visual_search_trial","894","","j","","","","","","","","","","null","red_blue_mix","11","[""images/Blue_Triangle.png"",""images/Blue_Circle.png"",""images/Blue_Triangle.png"",""images/Blue_Circle.png"",""images/Red_Circle.png"",""images/Blue_Circle.png"",""images/Blue_Circle.png"",""images/Red_Circle.png"",""images/Blue_Circle.png""]","true","[[242,167],[242,82],[187,16],[103,1],[29,44],[0,124],[29,205],[103,248],[187,233]]","false",""
"visual-search-circle","230","2.2.0","689085","79192","visual_search_trial","877","","f","","","","","","","","","","null","blue_triangle","11","[""images/Red_Triangle.png"",""images/Blue_Triangle.png"",""images/Blue_Triangle.png"",""images/Blue_Triangle.png"",""images/Blue_Triangle.png"",""images/Blue_Triangle.png"",""images/Blue_Triangle.png"",""images/Blue_Triangle.png"",""images/Blue_Triangle.png""]","true","[[116,249],[198,226],[246,155],[237,70],[175,10],[90,4],[21,55],[0,138],[38,214]]","true",""
"visual-search-circle","231","2.2.0","692191","79192","visual_search_trial","1603","","j","","","","","","","","","","null","red_blue_mix","11","[""images/Blue_Triangle.png"",""images/Red_Circle.png"",""images/Blue_Triangle.png""]","true","[[122,249],[234,64],[17,60]]","false",""
"visual-search-circle","232","2.2.0","694233","79192","visual_search_trial","537","","j","","","","","","","","","","null","blue_triangle","11","[""images/Blue_Triangle.png"",""images/Blue_Triangle.png"",""images/Blue_Triangle.png"",""images/Blue_Triangle.png"",""images/Blue_Triangle.png"",""images/Blue_Triangle.png"",""images/Blue_Triangle.png"",""images/Blue_Triangle.png"",""images/Blue_Triangle.png""]","true","[[0,109],[20,193],[88,244],[173,240],[236,181],[246,96],[200,25],[118,0],[39,33]]","false",""
"visual-search-circle","233","2.2.0","696549","79192","visual_search_trial","813","","f","","","","","","","","","","null","red_circle","11","[""images/Red_Triangle.png"",""images/Red_Circle.png"",""images/Red_Circle.png"",""images/Red_Circle.png"",""images/Red_Circle.png"",""images/Red_Circle.png""]","true","[[17,189],[127,249],[234,185],[232,60],[122,0],[15,64]]","true",""
"visual-search-circle","234","2.2.0","698896","79192","visual_search_trial","842","","j","","","","","","","","","","null","red_blue_mix","11","[""images/Blue_Triangle.png"",""images/Blue_Triangle.png"",""images/Blue_Circle.png"",""images/Blue_Circle.png"",""images/Blue_Circle.png"",""images/Blue_Triangle.png""]","true","[[150,247],[243,163],[217,41],[99,2],[6,86],[32,208]]","false",""
