"trial_type","trial_index","plugin_version","time_elapsed","sona_id","phase","rt","stimulus","response","consented","required_key","view_history","question_order","success","timeout","failed_images","failed_audio","failed_video","set_size","distractor_type","block","stimuli_list","correct","locations","target_present","break_key"
"pavlovia","0","null","752","78409","","","","","","","","","","","","","","","","","","","","",""
"html-button-response","1","2.1.0","11772","78409","informed_consent","11018","
    <div style=""max-width: 900px; margin: 0 auto; padding: 20px; text-align: left; line-height: 1.6;"">
      <h1 style=""text-align: center; color: #333; font-size: 24px; margin-bottom: 10px; font-weight: bold;"">
        INFORMED CONSENT INFORMATION
      </h1>
      <h2 style=""text-align: center; color: #333; font-size: 22px; margin-bottom: 20px; font-weight: bold;"">
        FOR RESEARCH PARTICIPATION
      </h2>
      
      <p style=""margin-bottom: 10px;""><strong>Study Title:</strong> The Effects of Mindfulness and Attention on Life Satisfaction and Memory</p>
      <p style=""margin-bottom: 10px;""><strong>Principal Investigator:</strong> Ella Bremmer</p>
      <p style=""margin-bottom: 10px;""><strong>Co-Principal Investigator:</strong> Dr. Gregory Cox</p>
      <p style=""margin-bottom: 20px;""><strong>IRB Study Number:</strong></p>

      <p style=""margin-bottom: 15px;"">I am a student at the University at Albany, in the Department of Psychology. I am planning to conduct a research study, which I invite you to take part in.</p>
      
      <p style=""margin-bottom: 25px;"">This form has important information about the reasons for doing this study, what we will ask you to do, and the way we would like to use the information we collect about you.</p>

      <h3 style=""color: #333; font-size: 18px; margin-top: 25px; margin-bottom: 10px; font-weight: bold;"">
        Why are you doing this study?
      </h3>
      <p style=""margin-bottom: 15px;"">You are being asked to participate in a research study that aims to understand if there is a relationship between mindfulness, the ability to pay attention, and life satisfaction.</p>
      
      <p style=""margin-bottom: 25px;"">The purpose of this study is to investigate if having better control over one's attention influences overall life satisfaction. Your participation will help us better understand if mindfulness and attention do have a significant effect on life satisfaction (i.e., how people feel about their lives overall). Then you will be asked to perform a conjunction visual search task to test your capacity to direct your attention over a sustained period.</p>

      <h3 style=""color: #333; font-size: 18px; margin-top: 25px; margin-bottom: 10px; font-weight: bold;"">
        Why am I eligible to participate in this study?
      </h3>
      <p style=""margin-bottom: 25px;"">You are eligible to participate because you are a student at UAlbany, are at least 18 years old, and are proficient in English.</p>

      <h3 style=""color: #333; font-size: 18px; margin-top: 25px; margin-bottom: 10px; font-weight: bold;"">
        What will I do if I choose to be in this study?
      </h3>
      <p style=""margin-bottom: 10px;"">If you choose to take part in our study, you will do the following:</p>
      <p style=""margin-bottom: 8px; margin-left: 20px;"">1. Read and agree to the informed consent.</p>
      <p style=""margin-bottom: 8px; margin-left: 40px;"">a. If you choose not to agree to the informed consent, you will be taken back to the SONA site.</p>
      <p style=""margin-bottom: 8px; margin-left: 20px;"">2. Complete a demographic questionnaire that asks about your age, English proficiency, gender, and race.</p>
      <p style=""margin-bottom: 8px; margin-left: 20px;"">3. Read instructions for the visual search task, which asks you to indicate if a target (a red triangle) is present among various other colored shapes. You should press the ""F"" key if a red triangle is present, or the ""J"" key if the target is absent.</p>
      <p style=""margin-bottom: 8px; margin-left: 20px;"">4. You will be asked to respond to 270 visual search trials, whith the opportunity to take short breaks as you go</p>
      <p style=""margin-bottom: 8px; margin-left: 20px;"">5. You will complete the Mindfulness Attention Awareness Scale (MAAS), the Satisfaction With Life Scale (SWLS), and the Big Five Inventory.</p>
      <p style=""margin-bottom: 25px; margin-left: 20px;"">6.	After all questionnaires are completed, participants will be thanked for their time and will be provided the study debriefing. Following the debriefing, you will be sent back to the SONA research site.</p>

      <h3 style=""color: #333; font-size: 18px; margin-top: 25px; margin-bottom: 10px; font-weight: bold;"">
        For how long will I participate?
      </h3>
      <p style=""margin-bottom: 25px;"">This study is a single online session that you can complete on a computer. The study can be completed in less than 30 minutes but could require as long as 45 minutes to complete.</p>

      <h3 style=""color: #333; font-size: 18px; margin-top: 25px; margin-bottom: 10px; font-weight: bold;"">
        Where will I need to go to participate?
      </h3>
      <p style=""margin-bottom: 25px;"">All study procedures will take place online and can be completed wherever you have internet connection.</p>

      <h3 style=""color: #333; font-size: 18px; margin-top: 25px; margin-bottom: 10px; font-weight: bold;"">
        Are there any costs I should be aware of?
      </h3>
      <p style=""margin-bottom: 25px;"">Participation is not expected to incur cost to participants. Free internet access is available anywhere on campus and in the university library.</p>

      <h3 style=""color: #333; font-size: 18px; margin-top: 25px; margin-bottom: 10px; font-weight: bold;"">
        What are the possible risks or discomforts?
      </h3>
      <p style=""margin-bottom: 15px;"">As with all research, there is a chance that confidentiality of the information we collect from you could be breached – we will take steps to minimize this risk, as discussed in more detail below.</p>
      
      <p style=""margin-bottom: 25px;"">The risks associated with participating in this study are minimal; however, you may experience mild discomfort when reflecting on your mindfulness or life satisfaction when answering questionnaires in the study. To help minimize this, you can withdraw from the study at any time without any consequences. The study will take place online, and you will have the opportunity to take breaks while completing the survey to reduce the risk of eye strain associated with the use of electronic devices.</p>

      <h3 style=""color: #333; font-size: 18px; margin-top: 25px; margin-bottom: 10px; font-weight: bold;"">
        What are the possible benefits for me or others?
      </h3>
      <p style=""margin-bottom: 25px;"">While there are no direct personal benefits to participants of this study, you may find value in reflecting on your mindfulness, attention, and its impact on life satisfaction by completing this survey. The data you contribute may help advance society's understanding of how mindfulness and attention relate to overall well-being, potentially informing future programs or interventions aimed at improving student mental health, attention, and life satisfaction.</p>

      <h3 style=""color: #333; font-size: 18px; margin-top: 25px; margin-bottom: 10px; font-weight: bold;"">
        Will I receive compensation for my participation?
      </h3>
      <p style=""margin-bottom: 25px;"">SONA partial class credit will be awarded via the Psychology Department SONA research pool after you complete the survey in its entirety. Participants who withdraw before completing the survey will not receive partial credit. You will not receive monetary compensation for your participation in this study.</p>

      <h3 style=""color: #333; font-size: 18px; margin-top: 25px; margin-bottom: 10px; font-weight: bold;"">
        How will you protect the information you collect about me, and how will that information be shared?
      </h3>
      <p style=""margin-bottom: 15px;"">Results of this study may be used in publications and presentations. Your data will be handled as confidentially as possible, and no identifiable information will be collected to link your data back to you. If results of this study are published or presented, only de-identified summaries of data will be used.</p>
      
      <p style=""margin-bottom: 25px;"">To minimize the risks to confidentiality, all data will be collected anonymously via Pavlovia.org which uses encryption to protect information (https://pavlovia.org/docs/home/ethics). Only the student researcher (Ella Bremmer), mentor (Pierce Johnson), and faculty advisor (Gregory Cox) will have password-protected access to the data. Data will be stored on secure, university approved computers.</p>

      <h3 style=""color: #333; font-size: 18px; margin-top: 25px; margin-bottom: 10px; font-weight: bold;"">
        Will my data be used in future research?
      </h3>
      <p style=""margin-bottom: 25px;"">No personal identifiers will be collected in the data you provide us. Data will not be used in future research, and will be deleted after the required retention period.</p>

      <h3 style=""color: #333; font-size: 18px; margin-top: 25px; margin-bottom: 10px; font-weight: bold;"">
        What are my rights as a research participant?
      </h3>
      <p style=""margin-bottom: 15px;"">Participation in this study is voluntary. You do not have to answer any question you do not want to answer. If at any time and for any reason, you would prefer not to participate in this study, please feel free not to. If at any time you would like to stop participating, you are welcome to stop. You can take a break or stop altogether. You may withdraw from this study at any time, and you will not be penalized in any way for deciding to stop participation.</p>
      
      <p style=""margin-bottom: 25px;"">If you decide to withdraw from this study, any information collected from you before withdrawing will not be used, and your data will be deleted.</p>

      <h3 style=""color: #333; font-size: 18px; margin-top: 25px; margin-bottom: 10px; font-weight: bold;"">
        What if I am a University at Albany student or employee?
      </h3>
      <p style=""margin-bottom: 25px;"">You may choose not to participate or to stop participating in this research at any time. This will not affect your class standing, grades, employment, or any other aspects of your relationship with the University at Albany.</p>

      <h3 style=""color: #333; font-size: 18px; margin-top: 25px; margin-bottom: 10px; font-weight: bold;"">
        Who can I contact if I have questions or concerns about this research study?
      </h3>
      <p style=""margin-bottom: 15px;"">If you have questions, please feel free to stop and email the investigator, Ella Bremmer (ebremmer@albany.edu) or advisors, Pierce Johnson (pjohnson4@albany.edu) and Dr. Greg Cox (gecox@albany.edu). If you have questions later, you may also contact the researchers.</p>
      
      <p style=""margin-bottom: 10px;"">If you have any questions about your rights as a participant in this research, you can contact the following office at the University at Albany:</p>
      
      <p style=""margin-bottom: 5px; margin-left: 20px;"">Institutional Review Board</p>
      <p style=""margin-bottom: 5px; margin-left: 20px;"">University at Albany</p>
      <p style=""margin-bottom: 5px; margin-left: 20px;"">Office of Regulatory and Research Compliance</p>
      <p style=""margin-bottom: 5px; margin-left: 20px;"">1400 Washington Ave, Biology 227</p>
      <p style=""margin-bottom: 5px; margin-left: 20px;"">Albany, NY 12222</p>
      <p style=""margin-bottom: 5px; margin-left: 20px;"">Phone: 1-866-857-5459</p>
      <p style=""margin-bottom: 25px; margin-left: 20px;"">Email: rco@albany.edu</p>

      <h3 style=""color: #333; font-size: 18px; margin-top: 30px; margin-bottom: 10px; font-weight: bold;"">
        Consent
      </h3>
      <p style=""margin-bottom: 20px;"">I have read this form and the research study has been explained to me. I have been given the opportunity to ask questions and my questions have been answered. If I have additional questions, I have been told whom to contact. I agree to participate in the research study described above. I understand that I have the opportunity to download and save a copy of this form for my records.</p>

      <div style=""background-color: #f9f9f9; border: 2px solid #4CAF50; border-radius: 5px; padding: 20px; margin-top: 20px; margin-bottom: 20px;"">
        <p style=""margin-bottom: 15px; font-weight: bold;"">To save a copy of this consent form for your records, press Ctrl+P (Windows/Linux) or Cmd+P (Mac) and select ""Save as PDF"".</p>
        <p style=""margin-bottom: 0; font-weight: bold;"">By clicking ""I Agree"" below, I confirm that I agree to participate in the research study described above, and that doing so serves as my written signature consenting to take part in the study.</p>
      </div>
    </div>
  ","0","true","","","","","","","","","","","","","","","",""
"instructions","3","2.1.0","34891","78409","intro_instructions","23117","","","","f","[{""page_index"":0,""viewing_time"":23117}]","","","","","","","","","","","","","",""
"html-keyboard-response","4","2.1.0","36894","78409","intermediate_slide_demo","null","<p style=""font-size:4vw"">Demographic Questionnaire</p>","null","","","","","","","","","","","","","","","","",""
"survey-multi-choice","5","2.1.0","40172","78409","demographics_english","3276","","{""english"":""Strongly agree""}","","","","[0]","","","","","","","","","","","","",""
"survey-text","7","2.1.0","42530","78409","demographics_age","2351","","{""age"":""18""}","","","","","","","","","","","","","","","","",""
"survey-multi-select","9","2.1.0","45972","78409","demographics_gender","3439","","{""gender"":[""Woman""]}","","","","[0]","","","","","","","","","","","","",""
"survey-multi-choice","11","2.1.0","50988","78409","demographics_race","5014","","{""race"":""Hispanic or Latino""}","","","","[0]","","","","","","","","","","","","",""
"html-keyboard-response","12","2.1.0","52990","78409","intermediate_slide_VS","null","<p style=""font-size:4vw"">Visual Search Task</p>","null","","","","","","","","","","","","","","","","",""
"preload","13","2.1.0","52993","78409","image_preload","","","","","","","","true","false","[]","[]","[]","","","","","","","",""
"html-button-response","14","2.1.0","56053","78409","vs_instructions","3060","<p>On the following screens, you will see a series of colored shapes (triangles, squares, and circles) appear.</p>
    <p>Please Press 'F' if there <strong>is</strong> a red triangle among the shapes you see.</p>
    <p>Press 'J' if there is <strong>not</strong> a red triangle among the shapes you see.</p>","0","","","","","","","","","","","","","","","","",""
"visual-search-circle","15","2.2.0","58567","78409","visual_search_trial","1008","","f","","","","","","","","","","null","blue_triangle","0","[""images/Red_Triangle.png"",""images/Blue_Triangle.png"",""images/Blue_Triangle.png"",""images/Blue_Triangle.png"",""images/Blue_Triangle.png"",""images/Blue_Triangle.png"",""images/Blue_Triangle.png"",""images/Blue_Triangle.png"",""images/Blue_Triangle.png""]","true","[[25,200],[96,246],[181,236],[240,173],[244,88],[193,20],[109,0],[33,39],[0,118]]","true",""
"visual-search-circle","16","2.2.0","60846","78409","visual_search_trial","774","","f","","","","","","","","","","null","red_circle","0","[""images/Red_Triangle.png"",""images/Red_Circle.png"",""images/Red_Circle.png"",""images/Red_Circle.png"",""images/Red_Circle.png"",""images/Red_Circle.png"",""images/Red_Circle.png"",""images/Red_Circle.png"",""images/Red_Circle.png""]","true","[[8,80],[6,165],[60,232],[144,248],[219,207],[249,127],[222,46],[148,2],[64,15]]","true",""
"visual-search-circle","17","2.2.0","63572","78409","visual_search_trial","1221","","f","","","","","","","","","","null","red_blue_mix","0","[""images/Red_Triangle.png"",""images/Red_Circle.png"",""images/Red_Circle.png"",""images/Blue_Circle.png"",""images/Blue_Circle.png"",""images/Blue_Triangle.png"",""images/Blue_Circle.png"",""images/Blue_Triangle.png"",""images/Blue_Triangle.png""]","true","[[74,10],[12,70],[3,155],[51,226],[133,249],[211,214],[249,138],[228,55],[159,4]]","true",""
"visual-search-circle","18","2.2.0","66246","78409","visual_search_trial","1169","","j","","","","","","","","","","null","blue_triangle","0","[""images/Blue_Triangle.png"",""images/Blue_Triangle.png"",""images/Blue_Triangle.png"",""images/Blue_Triangle.png"",""images/Blue_Triangle.png"",""images/Blue_Triangle.png"",""images/Blue_Triangle.png"",""images/Blue_Triangle.png"",""images/Blue_Triangle.png""]","true","[[62,233],[146,248],[220,205],[250,125],[220,44],[146,1],[62,16],[7,82],[7,167]]","false",""
"visual-search-circle","19","2.2.0","69041","78409","visual_search_trial","1291","","j","","","","","","","","","","null","red_blue_mix","0","[""images/Blue_Circle.png"",""images/Blue_Circle.png"",""images/Red_Circle.png"",""images/Blue_Triangle.png"",""images/Blue_Triangle.png"",""images/Blue_Circle.png""]","true","[[140,0],[25,49],[9,173],[109,249],[224,200],[240,76]]","false",""
"visual-search-circle","20","2.2.0","71043","78409","visual_search_trial","498","","j","","","","","","","","","","null","blue_triangle","0","[""images/Blue_Triangle.png"",""images/Blue_Triangle.png"",""images/Blue_Triangle.png"",""images/Blue_Triangle.png"",""images/Blue_Triangle.png"",""images/Blue_Triangle.png""]","true","[[194,228],[249,116],[179,12],[55,21],[0,133],[70,237]]","false",""
"visual-search-circle","21","2.2.0","73081","78409","visual_search_trial","535","","f","","","","","","","","","","null","red_circle","0","[""images/Red_Triangle.png"",""images/Red_Circle.png"",""images/Red_Circle.png""]","true","[[22,53],[114,249],[238,72]]","true",""
"visual-search-circle","22","2.2.0","75115","78409","visual_search_trial","530","","f","","","","","","","","","","null","blue_triangle","0","[""images/Red_Triangle.png"",""images/Blue_Triangle.png"",""images/Blue_Triangle.png"",""images/Blue_Triangle.png"",""images/Blue_Triangle.png"",""images/Blue_Triangle.png""]","true","[[175,10],[51,23],[0,138],[74,239],[198,226],[249,111]]","true",""
"visual-search-circle","23","2.2.0","78453","78409","visual_search_trial","1833","","j","","","","","","","","","","null","red_blue_mix","0","[""images/Blue_Triangle.png"",""images/Blue_Circle.png"",""images/Red_Circle.png"",""images/Blue_Triangle.png"",""images/Blue_Circle.png"",""images/Blue_Circle.png"",""images/Blue_Circle.png"",""images/Blue_Triangle.png"",""images/Red_Circle.png""]","true","[[247,99],[201,26],[120,0],[41,32],[1,107],[18,191],[86,243],[171,240],[235,183]]","false",""
"visual-search-circle","24","2.2.0","80705","78409","visual_search_trial","749","","j","","","","","","","","","","null","red_circle","0","[""images/Red_Circle.png"",""images/Red_Circle.png"",""images/Red_Circle.png""]","true","[[217,208],[150,2],[6,163]]","false",""
"visual-search-circle","25","2.2.0","82849","78409","visual_search_trial","641","","f","","","","","","","","","","null","red_blue_mix","0","[""images/Red_Triangle.png"",""images/Blue_Triangle.png"",""images/Blue_Circle.png""]","true","[[244,161],[96,3],[33,210]]","true",""
"visual-search-circle","26","2.2.0","85002","78409","visual_search_trial","649","","f","","","","","","","","","","null","red_circle","0","[""images/Red_Triangle.png"",""images/Red_Circle.png"",""images/Red_Circle.png"",""images/Red_Circle.png"",""images/Red_Circle.png"",""images/Red_Circle.png""]","true","[[144,1],[27,46],[8,169],[105,248],[222,203],[241,80]]","true",""
"visual-search-circle","27","2.2.0","87434","78409","visual_search_trial","927","","j","","","","","","","","","","null","blue_triangle","0","[""images/Blue_Triangle.png"",""images/Blue_Triangle.png"",""images/Blue_Triangle.png""]","true","[[243,86],[32,41],[99,247]]","false",""
"visual-search-circle","28","2.2.0","98422","78409","visual_search_trial","9484","","j","","","","","","","","","","null","red_blue_mix","0","[""images/Blue_Triangle.png"",""images/Red_Circle.png"",""images/Blue_Circle.png""]","true","[[177,11],[0,135],[196,227]]","false",""
"visual-search-circle","29","2.2.0","100818","78409","visual_search_trial","892","","f","","","","","","","","","","null","blue_triangle","0","[""images/Red_Triangle.png"",""images/Blue_Triangle.png"",""images/Blue_Triangle.png""]","true","[[248,105],[46,27],[80,241]]","true",""
"visual-search-circle","30","2.2.0","103341","78409","visual_search_trial","1018","","j","","","","","","","","","","null","red_circle","0","[""images/Red_Circle.png"",""images/Red_Circle.png"",""images/Red_Circle.png"",""images/Red_Circle.png"",""images/Red_Circle.png"",""images/Red_Circle.png""]","true","[[231,191],[235,66],[129,0],[18,58],[14,183],[120,249]]","false",""
"visual-search-circle","31","2.2.0","105809","78409","visual_search_trial","964","","f","","","","","","","","","","null","red_blue_mix","0","[""images/Red_Triangle.png"",""images/Red_Circle.png"",""images/Blue_Triangle.png"",""images/Red_Circle.png"",""images/Blue_Circle.png"",""images/Red_Circle.png""]","true","[[41,32],[2,150],[86,243],[208,217],[247,99],[163,6]]","true",""
"visual-search-circle","32","2.2.0","108161","78409","visual_search_trial","847","","j","","","","","","","","","","null","red_circle","0","[""images/Red_Circle.png"",""images/Red_Circle.png"",""images/Red_Circle.png"",""images/Red_Circle.png"",""images/Red_Circle.png"",""images/Red_Circle.png"",""images/Red_Circle.png"",""images/Red_Circle.png"",""images/Red_Circle.png""]","true","[[5,161],[56,229],[140,249],[216,210],[249,131],[224,49],[153,3],[68,13],[9,76]]","false",""
"visual-search-circle","33","2.2.0","111560","78409","visual_search_trial","1893","","j","","","","","","","","","","null","red_blue_mix","1","[""images/Blue_Circle.png"",""images/Blue_Circle.png"",""images/Blue_Triangle.png"",""images/Blue_Circle.png"",""images/Blue_Circle.png"",""images/Red_Circle.png"",""images/Red_Circle.png"",""images/Blue_Triangle.png"",""images/Red_Circle.png""]","true","[[247,150],[235,66],[171,9],[86,6],[18,58],[1,142],[41,217],[120,249],[201,223]]","false",""
"visual-search-circle","34","2.2.0","113774","78409","visual_search_trial","709","","j","","","","","","","","","","null","red_circle","1","[""images/Red_Circle.png"",""images/Red_Circle.png"",""images/Red_Circle.png"",""images/Red_Circle.png"",""images/Red_Circle.png"",""images/Red_Circle.png"",""images/Red_Circle.png"",""images/Red_Circle.png"",""images/Red_Circle.png""]","true","[[237,179],[246,94],[198,23],[116,0],[38,35],[0,111],[21,194],[90,245],[175,239]]","false",""
"visual-search-circle","35","2.2.0","116043","78409","visual_search_trial","765","","f","","","","","","","","","","null","red_blue_mix","1","[""images/Red_Triangle.png"",""images/Blue_Triangle.png"",""images/Red_Circle.png"",""images/Red_Circle.png"",""images/Blue_Triangle.png"",""images/Blue_Triangle.png""]","true","[[4,92],[36,213],[157,245],[245,157],[213,36],[92,4]]","true",""
"visual-search-circle","36","2.2.0","118542","78409","visual_search_trial","996","","j","","","","","","","","","","null","red_circle","1","[""images/Red_Circle.png"",""images/Red_Circle.png"",""images/Red_Circle.png"",""images/Red_Circle.png"",""images/Red_Circle.png"",""images/Red_Circle.png""]","true","[[0,120],[58,231],[183,235],[249,129],[191,18],[66,14]]","false",""
"visual-search-circle","37","2.2.0","120713","78409","visual_search_trial","666","","j","","","","","","","","","","null","blue_triangle","1","[""images/Blue_Triangle.png"",""images/Blue_Triangle.png"",""images/Blue_Triangle.png"",""images/Blue_Triangle.png"",""images/Blue_Triangle.png"",""images/Blue_Triangle.png"",""images/Blue_Triangle.png"",""images/Blue_Triangle.png"",""images/Blue_Triangle.png""]","true","[[0,116],[23,198],[94,246],[179,237],[239,175],[245,90],[194,21],[111,0],[35,38]]","false",""
"visual-search-circle","38","2.2.0","123225","78409","visual_search_trial","1009","","f","","","","","","","","","","null","red_circle","1","[""images/Red_Triangle.png"",""images/Red_Circle.png"",""images/Red_Circle.png""]","true","[[238,177],[114,0],[22,196]]","true",""
"visual-search-circle","39","2.2.0","125346","78409","visual_search_trial","618","","f","","","","","","","","","","null","red_blue_mix","1","[""images/Red_Triangle.png"",""images/Blue_Triangle.png"",""images/Blue_Triangle.png""]","true","[[246,96],[39,33],[88,244]]","true",""
"visual-search-circle","40","2.2.0","127480","78409","visual_search_trial","630","","f","","","","","","","","","","null","blue_triangle","1","[""images/Red_Triangle.png"",""images/Blue_Triangle.png"",""images/Blue_Triangle.png""]","true","[[11,177],[227,196],[135,0]]","true",""
"visual-search-circle","41","2.2.0","130123","78409","visual_search_trial","1139","","j","","","","","","","","","","null","red_blue_mix","1","[""images/Red_Circle.png"",""images/Red_Circle.png"",""images/Blue_Triangle.png""]","true","[[243,163],[99,2],[32,208]]","false",""
"visual-search-circle","42","2.2.0","132392","78409","visual_search_trial","765","","f","","","","","","","","","","null","blue_triangle","1","[""images/Red_Triangle.png"",""images/Blue_Triangle.png"",""images/Blue_Triangle.png"",""images/Blue_Triangle.png"",""images/Blue_Triangle.png"",""images/Blue_Triangle.png""]","true","[[183,14],[58,18],[0,129],[66,235],[191,231],[249,120]]","true",""
"visual-search-circle","43","2.2.0","134718","78409","visual_search_trial","823","","f","","","","","","","","","","null","red_circle","1","[""images/Red_Triangle.png"",""images/Red_Circle.png"",""images/Red_Circle.png"",""images/Red_Circle.png"",""images/Red_Circle.png"",""images/Red_Circle.png"",""images/Red_Circle.png"",""images/Red_Circle.png"",""images/Red_Circle.png""]","true","[[231,191],[248,107],[208,32],[129,0],[48,26],[2,99],[14,183],[78,240],[163,243]]","true",""
"visual-search-circle","44","2.2.0","136914","78409","visual_search_trial","690","","f","","","","","","","","","","null","blue_triangle","1","[""images/Red_Triangle.png"",""images/Blue_Triangle.png"",""images/Blue_Triangle.png"",""images/Blue_Triangle.png"",""images/Blue_Triangle.png"",""images/Blue_Triangle.png"",""images/Blue_Triangle.png"",""images/Blue_Triangle.png"",""images/Blue_Triangle.png""]","true","[[68,236],[153,246],[224,200],[249,118],[216,39],[140,0],[56,20],[5,88],[9,173]]","true",""
"visual-search-circle","45","2.2.0","139469","78409","visual_search_trial","1052","","j","","","","","","","","","","null","red_circle","1","[""images/Red_Circle.png"",""images/Red_Circle.png"",""images/Red_Circle.png""]","true","[[86,6],[41,217],[247,150]]","false",""
"visual-search-circle","46","2.2.0","142210","78409","visual_search_trial","1236","","f","","","","","","","","","","null","red_blue_mix","1","[""images/Red_Triangle.png"",""images/Red_Circle.png"",""images/Blue_Triangle.png"",""images/Red_Circle.png"",""images/Blue_Circle.png"",""images/Red_Circle.png"",""images/Blue_Circle.png"",""images/Blue_Triangle.png"",""images/Red_Circle.png""]","true","[[196,22],[114,0],[36,36],[0,114],[22,196],[92,245],[177,238],[238,177],[245,92]]","true",""
"visual-search-circle","47","2.2.0","145958","78409","visual_search_trial","2245","","j","","","","","","","","","","null","blue_triangle","1","[""images/Blue_Triangle.png"",""images/Blue_Triangle.png"",""images/Blue_Triangle.png""]","true","[[35,38],[94,246],[245,90]]","false",""
"visual-search-circle","48","2.2.0","151420","78409","visual_search_trial","3958","","j","","","","","","","","","","null","red_blue_mix","1","[""images/Red_Circle.png"",""images/Blue_Circle.png"",""images/Red_Circle.png"",""images/Blue_Circle.png"",""images/Blue_Circle.png"",""images/Red_Circle.png""]","true","[[109,249],[224,200],[240,76],[140,0],[25,49],[9,173]]","false",""
"visual-search-circle","49","2.2.0","153959","78409","visual_search_trial","1036","","j","","","","","","","","","","null","blue_triangle","1","[""images/Blue_Triangle.png"",""images/Blue_Triangle.png"",""images/Blue_Triangle.png"",""images/Blue_Triangle.png"",""images/Blue_Triangle.png"",""images/Blue_Triangle.png""]","true","[[249,109],[173,9],[49,25],[0,140],[76,240],[200,224]]","false",""
"visual-search-circle","50","2.2.0","157711","78409","visual_search_trial","2248","","f","","","","","","","","","","null","red_circle","1","[""images/Red_Triangle.png"",""images/Red_Circle.png"",""images/Red_Circle.png"",""images/Red_Circle.png"",""images/Red_Circle.png"",""images/Red_Circle.png""]","true","[[236,68],[131,0],[20,56],[13,181],[118,249],[229,193]]","true",""
"html-keyboard-response","51","2.1.0","159729","78409","break","2017","<p>Great job so far! Please rest for a few seconds before continuing.</p>
                 <p>Press the <strong>Q</strong> key on your keyboard to continue.</p>","q","","","","","","","","","","","","","","","","","Q"
"visual-search-circle","52","2.2.0","163014","78409","visual_search_trial","1782","","j","","","","","","","","","","null","blue_triangle","2","[""images/Blue_Triangle.png"",""images/Blue_Triangle.png"",""images/Blue_Triangle.png""]","true","[[247,150],[86,6],[41,217]]","false",""
"visual-search-circle","53","2.2.0","165357","78409","visual_search_trial","837","","f","","","","","","","","","","null","red_blue_mix","2","[""images/Red_Triangle.png"",""images/Blue_Circle.png"",""images/Blue_Circle.png"",""images/Blue_Triangle.png"",""images/Blue_Triangle.png"",""images/Blue_Triangle.png"",""images/Blue_Circle.png"",""images/Blue_Circle.png"",""images/Blue_Triangle.png""]","true","[[44,29],[1,103],[16,187],[82,242],[167,242],[233,187],[248,103],[205,29],[125,0]]","true",""
"visual-search-circle","54","2.2.0","168402","78409","visual_search_trial","1542","","f","","","","","","","","","","null","blue_triangle","2","[""images/Red_Triangle.png"",""images/Blue_Triangle.png"",""images/Blue_Triangle.png"",""images/Blue_Triangle.png"",""images/Blue_Triangle.png"",""images/Blue_Triangle.png""]","true","[[179,12],[55,21],[0,133],[70,237],[194,228],[249,116]]","true",""
"visual-search-circle","55","2.2.0","170743","78409","visual_search_trial","838","","f","","","","","","","","","","null","red_circle","2","[""images/Red_Triangle.png"",""images/Red_Circle.png"",""images/Red_Circle.png"",""images/Red_Circle.png"",""images/Red_Circle.png"",""images/Red_Circle.png""]","true","[[0,138],[74,239],[198,226],[249,111],[175,10],[51,23]]","true",""
"visual-search-circle","56","2.2.0","173228","78409","visual_search_trial","981","","j","","","","","","","","","","null","red_blue_mix","2","[""images/Blue_Triangle.png"",""images/Red_Circle.png"",""images/Blue_Circle.png"",""images/Blue_Triangle.png"",""images/Blue_Triangle.png"",""images/Red_Circle.png"",""images/Blue_Circle.png"",""images/Blue_Triangle.png"",""images/Blue_Triangle.png""]","true","[[133,249],[211,214],[249,138],[228,55],[159,4],[74,10],[12,70],[3,155],[51,226]]","false",""
"visual-search-circle","57","2.2.0","175730","78409","visual_search_trial","998","","j","","","","","","","","","","null","blue_triangle","2","[""images/Blue_Triangle.png"",""images/Blue_Triangle.png"",""images/Blue_Triangle.png"",""images/Blue_Triangle.png"",""images/Blue_Triangle.png"",""images/Blue_Triangle.png"",""images/Blue_Triangle.png"",""images/Blue_Triangle.png"",""images/Blue_Triangle.png""]","true","[[159,245],[228,194],[249,111],[211,35],[133,0],[51,23],[3,94],[12,179],[74,239]]","false",""
"visual-search-circle","58","2.2.0","178167","78409","visual_search_trial","933","","f","","","","","","","","","","null","red_circle","2","[""images/Red_Triangle.png"",""images/Red_Circle.png"",""images/Red_Circle.png""]","true","[[0,127],[189,232],[185,15]]","true",""
"visual-search-circle","59","2.2.0","180763","78409","visual_search_trial","1092","","f","","","","","","","","","","null","blue_triangle","2","[""images/Red_Triangle.png"",""images/Blue_Triangle.png"",""images/Blue_Triangle.png"",""images/Blue_Triangle.png"",""images/Blue_Triangle.png"",""images/Blue_Triangle.png"",""images/Blue_Triangle.png"",""images/Blue_Triangle.png"",""images/Blue_Triangle.png""]","true","[[148,247],[222,203],[249,122],[219,42],[144,1],[60,17],[6,84],[8,169],[64,234]]","true",""
"visual-search-circle","60","2.2.0","182970","78409","visual_search_trial","702","","j","","","","","","","","","","null","red_circle","2","[""images/Red_Circle.png"",""images/Red_Circle.png"",""images/Red_Circle.png"",""images/Red_Circle.png"",""images/Red_Circle.png"",""images/Red_Circle.png""]","true","[[173,240],[249,140],[200,25],[76,9],[0,109],[49,224]]","false",""
"visual-search-circle","61","2.2.0","185187","78409","visual_search_trial","713","","f","","","","","","","","","","null","red_blue_mix","2","[""images/Red_Triangle.png"",""images/Blue_Circle.png"",""images/Blue_Circle.png""]","true","[[229,193],[131,0],[13,181]]","true",""
"visual-search-circle","62","2.2.0","187697","78409","visual_search_trial","1004","","f","","","","","","","","","","null","red_circle","2","[""images/Red_Triangle.png"",""images/Red_Circle.png"",""images/Red_Circle.png"",""images/Red_Circle.png"",""images/Red_Circle.png"",""images/Red_Circle.png"",""images/Red_Circle.png"",""images/Red_Circle.png"",""images/Red_Circle.png""]","true","[[205,220],[248,146],[233,62],[167,7],[82,7],[16,62],[1,146],[44,220],[124,250]]","true",""
"visual-search-circle","63","2.2.0","190497","78409","visual_search_trial","1296","","j","","","","","","","","","","null","red_blue_mix","2","[""images/Blue_Circle.png"",""images/Blue_Triangle.png"",""images/Blue_Circle.png"",""images/Blue_Circle.png"",""images/Blue_Triangle.png"",""images/Blue_Triangle.png""]","true","[[0,131],[68,236],[193,229],[249,118],[181,13],[56,20]]","false",""
"visual-search-circle","64","2.2.0","192850","78409","visual_search_trial","847","","j","","","","","","","","","","null","red_circle","2","[""images/Red_Circle.png"",""images/Red_Circle.png"",""images/Red_Circle.png"",""images/Red_Circle.png"",""images/Red_Circle.png"",""images/Red_Circle.png"",""images/Red_Circle.png"",""images/Red_Circle.png"",""images/Red_Circle.png""]","true","[[72,238],[157,245],[227,196],[249,114],[213,36],[135,0],[53,22],[4,92],[11,177]]","false",""
"visual-search-circle","65","2.2.0","195093","78409","visual_search_trial","738","","j","","","","","","","","","","null","blue_triangle","2","[""images/Blue_Triangle.png"",""images/Blue_Triangle.png"",""images/Blue_Triangle.png"",""images/Blue_Triangle.png"",""images/Blue_Triangle.png"",""images/Blue_Triangle.png""]","true","[[44,29],[1,146],[82,242],[205,220],[248,103],[167,7]]","false",""
"visual-search-circle","66","2.2.0","197844","78409","visual_search_trial","1248","","f","","","","","","","","","","null","red_blue_mix","2","[""images/Red_Triangle.png"",""images/Red_Circle.png"",""images/Red_Circle.png"",""images/Blue_Circle.png"",""images/Blue_Triangle.png"",""images/Red_Circle.png""]","true","[[229,193],[236,68],[131,0],[20,56],[13,181],[118,249]]","true",""
"visual-search-circle","67","2.2.0","199890","78409","visual_search_trial","543","","j","","","","","","","","","","null","red_circle","2","[""images/Red_Circle.png"",""images/Red_Circle.png"",""images/Red_Circle.png""]","true","[[0,127],[189,232],[185,15]]","false",""
"visual-search-circle","68","2.2.0","202530","78409","visual_search_trial","1137","","j","","","","","","","","","","null","red_blue_mix","2","[""images/Blue_Triangle.png"",""images/Red_Circle.png"",""images/Blue_Circle.png""]","true","[[249,111],[51,23],[74,239]]","false",""
"visual-search-circle","69","2.2.0","204771","78409","visual_search_trial","737","","f","","","","","","","","","","null","blue_triangle","2","[""images/Red_Triangle.png"",""images/Blue_Triangle.png"",""images/Blue_Triangle.png""]","true","[[82,7],[44,220],[248,146]]","true",""
"visual-search-circle","70","2.2.0","207249","78409","visual_search_trial","974","","j","","","","","","","","","","null","red_blue_mix","3","[""images/Red_Circle.png"",""images/Red_Circle.png"",""images/Blue_Circle.png"",""images/Blue_Triangle.png"",""images/Blue_Triangle.png"",""images/Blue_Circle.png""]","true","[[211,35],[90,4],[3,94],[38,214],[159,245],[246,155]]","false",""
"visual-search-circle","71","2.2.0","209687","78409","visual_search_trial","935","","f","","","","","","","","","","null","red_circle","3","[""images/Red_Triangle.png"",""images/Red_Circle.png"",""images/Red_Circle.png"",""images/Red_Circle.png"",""images/Red_Circle.png"",""images/Red_Circle.png"",""images/Red_Circle.png"",""images/Red_Circle.png"",""images/Red_Circle.png""]","true","[[0,140],[39,216],[118,249],[200,224],[246,153],[236,68],[173,9],[88,5],[20,56]]","true",""
"visual-search-circle","72","2.2.0","212605","78409","visual_search_trial","1413","","f","","","","","","","","","","null","red_blue_mix","3","[""images/Red_Triangle.png"",""images/Blue_Circle.png"",""images/Blue_Triangle.png"",""images/Blue_Triangle.png"",""images/Red_Circle.png"",""images/Blue_Triangle.png"",""images/Red_Circle.png"",""images/Red_Circle.png"",""images/Blue_Triangle.png""]","true","[[235,183],[247,99],[201,26],[120,0],[41,32],[1,107],[18,191],[86,243],[171,240]]","true",""
"visual-search-circle","73","2.2.0","216038","78409","visual_search_trial","1928","","j","","","","","","","","","","null","blue_triangle","3","[""images/Blue_Triangle.png"",""images/Blue_Triangle.png"",""images/Blue_Triangle.png"",""images/Blue_Triangle.png"",""images/Blue_Triangle.png"",""images/Blue_Triangle.png"",""images/Blue_Triangle.png"",""images/Blue_Triangle.png"",""images/Blue_Triangle.png""]","true","[[4,92],[11,177],[72,238],[157,245],[227,196],[249,114],[213,36],[135,0],[53,22]]","false",""
"visual-search-circle","74","2.2.0","221404","78409","visual_search_trial","3862","","f","","","","","","","","","","null","red_circle","3","[""images/Red_Triangle.png"",""images/Red_Circle.png"",""images/Red_Circle.png"",""images/Red_Circle.png"",""images/Red_Circle.png"",""images/Red_Circle.png""]","true","[[244,88],[153,3],[33,39],[5,161],[96,246],[216,210]]","true",""
"visual-search-circle","75","2.2.0","234826","78409","visual_search_trial","11918","","j","","","","","","","","","","null","blue_triangle","3","[""images/Blue_Triangle.png"",""images/Blue_Triangle.png"",""images/Blue_Triangle.png"",""images/Blue_Triangle.png"",""images/Blue_Triangle.png"",""images/Blue_Triangle.png""]","true","[[146,1],[29,44],[7,167],[103,248],[220,205],[242,82]]","false",""
"visual-search-circle","76","2.2.0","236869","78409","visual_search_trial","538","","f","","","","","","","","","","null","red_blue_mix","3","[""images/Red_Triangle.png"",""images/Blue_Triangle.png"",""images/Blue_Triangle.png"",""images/Blue_Circle.png"",""images/Blue_Circle.png"",""images/Blue_Circle.png""]","true","[[0,138],[74,239],[198,226],[249,111],[175,10],[51,23]]","true",""
"visual-search-circle","77","2.2.0","239177","78409","visual_search_trial","804","","f","","","","","","","","","","null","blue_triangle","3","[""images/Red_Triangle.png"",""images/Blue_Triangle.png"",""images/Blue_Triangle.png"",""images/Blue_Triangle.png"",""images/Blue_Triangle.png"",""images/Blue_Triangle.png"",""images/Blue_Triangle.png"",""images/Blue_Triangle.png"",""images/Blue_Triangle.png""]","true","[[153,3],[68,13],[9,76],[5,161],[56,229],[140,249],[216,210],[249,131],[224,49]]","true",""
"visual-search-circle","78","2.2.0","241338","78409","visual_search_trial","657","","j","","","","","","","","","","null","red_circle","3","[""images/Red_Circle.png"",""images/Red_Circle.png"",""images/Red_Circle.png"",""images/Red_Circle.png"",""images/Red_Circle.png"",""images/Red_Circle.png""]","true","[[240,78],[142,1],[26,48],[9,171],[107,248],[223,201]]","false",""
"visual-search-circle","79","2.2.0","243565","78409","visual_search_trial","724","","f","","","","","","","","","","null","blue_triangle","3","[""images/Red_Triangle.png"",""images/Blue_Triangle.png"",""images/Blue_Triangle.png"",""images/Blue_Triangle.png"",""images/Blue_Triangle.png"",""images/Blue_Triangle.png""]","true","[[224,200],[240,76],[140,0],[25,49],[9,173],[109,249]]","true",""
"visual-search-circle","80","2.2.0","245667","78409","visual_search_trial","599","","f","","","","","","","","","","null","red_circle","3","[""images/Red_Triangle.png"",""images/Red_Circle.png"",""images/Red_Circle.png""]","true","[[111,249],[239,74],[23,51]]","true",""
"visual-search-circle","81","2.2.0","248540","78409","visual_search_trial","1367","","j","","","","","","","","","","null","red_blue_mix","3","[""images/Red_Circle.png"",""images/Blue_Circle.png"",""images/Blue_Circle.png"",""images/Blue_Triangle.png"",""images/Blue_Circle.png"",""images/Blue_Circle.png"",""images/Blue_Circle.png"",""images/Blue_Triangle.png"",""images/Red_Circle.png""]","true","[[148,247],[222,203],[249,122],[219,42],[144,1],[60,17],[6,84],[8,169],[64,234]]","false",""
"visual-search-circle","82","2.2.0","250810","78409","visual_search_trial","767","","j","","","","","","","","","","null","blue_triangle","3","[""images/Blue_Triangle.png"",""images/Blue_Triangle.png"",""images/Blue_Triangle.png""]","true","[[48,223],[248,142],[78,9]]","false",""
"visual-search-circle","83","2.2.0","253307","78409","visual_search_trial","994","","f","","","","","","","","","","null","red_blue_mix","3","[""images/Red_Triangle.png"",""images/Red_Circle.png"",""images/Blue_Circle.png""]","true","[[3,155],[211,214],[159,4]]","true",""
"visual-search-circle","84","2.2.0","255367","78409","visual_search_trial","557","","j","","","","","","","","","","null","red_circle","3","[""images/Red_Circle.png"",""images/Red_Circle.png"",""images/Red_Circle.png""]","true","[[129,249],[231,58],[14,66]]","false",""
"visual-search-circle","85","2.2.0","257575","78409","visual_search_trial","705","","j","","","","","","","","","","null","red_blue_mix","3","[""images/Red_Circle.png"",""images/Blue_Circle.png"",""images/Blue_Triangle.png""]","true","[[26,48],[107,248],[240,78]]","false",""
"visual-search-circle","86","2.2.0","259703","78409","visual_search_trial","625","","f","","","","","","","","","","null","blue_triangle","3","[""images/Red_Triangle.png"",""images/Blue_Triangle.png"",""images/Blue_Triangle.png""]","true","[[140,249],[224,49],[9,76]]","true",""
"visual-search-circle","87","2.2.0","261754","78409","visual_search_trial","547","","j","","","","","","","","","","null","red_circle","3","[""images/Red_Circle.png"",""images/Red_Circle.png"",""images/Red_Circle.png"",""images/Red_Circle.png"",""images/Red_Circle.png"",""images/Red_Circle.png"",""images/Red_Circle.png"",""images/Red_Circle.png"",""images/Red_Circle.png""]","true","[[6,86],[9,171],[66,235],[150,247],[223,201],[249,120],[217,41],[142,1],[58,18]]","false",""
"html-keyboard-response","88","2.1.0","263167","78409","break","1412","<p>Great job so far! Please rest for a few seconds before continuing.</p>
                 <p>Press the <strong>B</strong> key on your keyboard to continue.</p>","b","","","","","","","","","","","","","","","","","B"
"visual-search-circle","89","2.2.0","266661","78409","visual_search_trial","1992","","f","","","","","","","","","","null","red_blue_mix","4","[""images/Red_Triangle.png"",""images/Red_Circle.png"",""images/Red_Circle.png""]","true","[[17,189],[234,185],[122,0]]","true",""
"visual-search-circle","90","2.2.0","268873","78409","visual_search_trial","708","","j","","","","","","","","","","null","blue_triangle","4","[""images/Blue_Triangle.png"",""images/Blue_Triangle.png"",""images/Blue_Triangle.png"",""images/Blue_Triangle.png"",""images/Blue_Triangle.png"",""images/Blue_Triangle.png"",""images/Blue_Triangle.png"",""images/Blue_Triangle.png"",""images/Blue_Triangle.png""]","true","[[92,4],[22,53],[0,135],[36,213],[114,249],[196,227],[245,157],[238,72],[177,11]]","false",""
"visual-search-circle","91","2.2.0","271108","78409","visual_search_trial","731","","f","","","","","","","","","","null","red_circle","4","[""images/Red_Triangle.png"",""images/Red_Circle.png"",""images/Red_Circle.png""]","true","[[94,3],[35,211],[245,159]]","true",""
"visual-search-circle","92","2.2.0","273355","78409","visual_search_trial","744","","j","","","","","","","","","","null","red_blue_mix","4","[""images/Red_Circle.png"",""images/Blue_Triangle.png"",""images/Red_Circle.png""]","true","[[9,76],[140,249],[224,49]]","false",""
"visual-search-circle","93","2.2.0","275425","78409","visual_search_trial","565","","j","","","","","","","","","","null","red_circle","4","[""images/Red_Circle.png"",""images/Red_Circle.png"",""images/Red_Circle.png"",""images/Red_Circle.png"",""images/Red_Circle.png"",""images/Red_Circle.png"",""images/Red_Circle.png"",""images/Red_Circle.png"",""images/Red_Circle.png""]","true","[[249,122],[219,42],[144,1],[60,17],[6,84],[8,169],[64,234],[148,247],[222,203]]","false",""
"visual-search-circle","94","2.2.0","277423","78409","visual_search_trial","493","","f","","","","","","","","","","null","blue_triangle","4","[""images/Red_Triangle.png"",""images/Blue_Triangle.png"",""images/Blue_Triangle.png"",""images/Blue_Triangle.png"",""images/Blue_Triangle.png"",""images/Blue_Triangle.png""]","true","[[245,157],[213,36],[92,4],[4,92],[36,213],[157,245]]","true",""
"visual-search-circle","95","2.2.0","281002","78409","visual_search_trial","2074","","f","","","","","","","","","","null","red_blue_mix","4","[""images/Red_Triangle.png"",""images/Red_Circle.png"",""images/Blue_Triangle.png"",""images/Blue_Triangle.png"",""images/Red_Circle.png"",""images/Blue_Circle.png"",""images/Blue_Circle.png"",""images/Blue_Triangle.png"",""images/Blue_Triangle.png""]","true","[[70,12],[10,74],[4,159],[55,228],[138,249],[214,211],[249,133],[226,51],[155,3]]","true",""
"visual-search-circle","96","2.2.0","283130","78409","visual_search_trial","624","","j","","","","","","","","","","null","red_circle","4","[""images/Red_Circle.png"",""images/Red_Circle.png"",""images/Red_Circle.png""]","true","[[229,56],[13,68],[131,249]]","false",""
"visual-search-circle","97","2.2.0","285437","78409","visual_search_trial","804","","f","","","","","","","","","","null","blue_triangle","4","[""images/Red_Triangle.png"",""images/Blue_Triangle.png"",""images/Blue_Triangle.png""]","true","[[173,240],[200,25],[0,109]]","true",""
"visual-search-circle","98","2.2.0","287680","78409","visual_search_trial","739","","j","","","","","","","","","","null","red_circle","4","[""images/Red_Circle.png"",""images/Red_Circle.png"",""images/Red_Circle.png"",""images/Red_Circle.png"",""images/Red_Circle.png"",""images/Red_Circle.png""]","true","[[238,177],[227,53],[114,0],[11,72],[22,196],[135,249]]","false",""
"visual-search-circle","99","2.2.0","289836","78409","visual_search_trial","652","","f","","","","","","","","","","null","red_blue_mix","4","[""images/Red_Triangle.png"",""images/Blue_Circle.png"",""images/Blue_Circle.png"",""images/Red_Circle.png"",""images/Red_Circle.png"",""images/Blue_Circle.png""]","true","[[159,4],[38,35],[3,155],[90,245],[211,214],[246,94]]","true",""
"visual-search-circle","100","2.2.0","291996","78409","visual_search_trial","656","","f","","","","","","","","","","null","red_circle","4","[""images/Red_Triangle.png"",""images/Red_Circle.png"",""images/Red_Circle.png"",""images/Red_Circle.png"",""images/Red_Circle.png"",""images/Red_Circle.png"",""images/Red_Circle.png"",""images/Red_Circle.png"",""images/Red_Circle.png""]","true","[[114,249],[196,227],[245,157],[238,72],[177,11],[92,4],[22,53],[0,135],[36,213]]","true",""
"visual-search-circle","101","2.2.0","294257","78409","visual_search_trial","757","","j","","","","","","","","","","null","blue_triangle","4","[""images/Blue_Triangle.png"",""images/Blue_Triangle.png"",""images/Blue_Triangle.png""]","true","[[249,138],[74,10],[51,226]]","false",""
"visual-search-circle","102","2.2.0","296808","78409","visual_search_trial","1047","","j","","","","","","","","","","null","red_blue_mix","4","[""images/Red_Circle.png"",""images/Blue_Triangle.png"",""images/Blue_Circle.png"",""images/Blue_Circle.png"",""images/Red_Circle.png"",""images/Blue_Triangle.png""]","true","[[226,51],[111,0],[10,74],[23,198],[138,249],[239,175]]","false",""
"visual-search-circle","103","2.2.0","298803","78409","visual_search_trial","491","","j","","","","","","","","","","null","blue_triangle","4","[""images/Blue_Triangle.png"",""images/Blue_Triangle.png"",""images/Blue_Triangle.png"",""images/Blue_Triangle.png"",""images/Blue_Triangle.png"",""images/Blue_Triangle.png""]","true","[[8,80],[27,203],[144,248],[241,169],[222,46],[105,1]]","false",""
"visual-search-circle","104","2.2.0","300808","78409","visual_search_trial","501","","f","","","","","","","","","","null","red_circle","4","[""images/Red_Triangle.png"",""images/Red_Circle.png"",""images/Red_Circle.png"",""images/Red_Circle.png"",""images/Red_Circle.png"",""images/Red_Circle.png""]","true","[[26,48],[9,171],[107,248],[223,201],[240,78],[142,1]]","true",""
"visual-search-circle","105","2.2.0","304207","78409","visual_search_trial","1894","","f","","","","","","","","","","null","blue_triangle","4","[""images/Red_Triangle.png"",""images/Blue_Triangle.png"",""images/Blue_Triangle.png"",""images/Blue_Triangle.png"",""images/Blue_Triangle.png"",""images/Blue_Triangle.png"",""images/Blue_Triangle.png"",""images/Blue_Triangle.png"",""images/Blue_Triangle.png""]","true","[[163,6],[78,9],[14,66],[2,150],[48,223],[129,249],[208,217],[248,142],[231,58]]","true",""
"visual-search-circle","106","2.2.0","319678","78409","visual_search_trial","13967","","j","","","","","","","","","","null","red_blue_mix","4","[""images/Blue_Circle.png"",""images/Blue_Triangle.png"",""images/Blue_Circle.png"",""images/Blue_Circle.png"",""images/Red_Circle.png"",""images/Blue_Triangle.png"",""images/Red_Circle.png"",""images/Red_Circle.png"",""images/Blue_Circle.png""]","true","[[244,161],[240,76],[181,13],[96,3],[25,49],[0,131],[33,210],[109,249],[193,229]]","false",""
"visual-search-circle","107","2.2.0","322563","78409","visual_search_trial","1380","","f","","","","","","","","","","null","red_blue_mix","5","[""images/Red_Triangle.png"",""images/Blue_Triangle.png"",""images/Blue_Circle.png"",""images/Red_Circle.png"",""images/Blue_Triangle.png"",""images/Red_Circle.png""]","true","[[78,240],[201,223],[248,107],[171,9],[48,26],[1,142]]","true",""
"visual-search-circle","108","2.2.0","325206","78409","visual_search_trial","1139","","f","","","","","","","","","","null","red_circle","5","[""images/Red_Triangle.png"",""images/Red_Circle.png"",""images/Red_Circle.png"",""images/Red_Circle.png"",""images/Red_Circle.png"",""images/Red_Circle.png""]","true","[[240,171],[223,48],[107,1],[9,78],[26,201],[142,248]]","true",""
"visual-search-circle","109","2.2.0","327939","78409","visual_search_trial","1228","","f","","","","","","","","","","null","blue_triangle","5","[""images/Red_Triangle.png"",""images/Blue_Triangle.png"",""images/Blue_Triangle.png"",""images/Blue_Triangle.png"",""images/Blue_Triangle.png"",""images/Blue_Triangle.png"",""images/Blue_Triangle.png"",""images/Blue_Triangle.png"",""images/Blue_Triangle.png""]","true","[[198,226],[246,155],[237,70],[175,10],[90,4],[21,55],[0,138],[38,214],[116,249]]","true",""
"visual-search-circle","110","2.2.0","330870","78409","visual_search_trial","1428","","f","","","","","","","","","","null","red_circle","5","[""images/Red_Triangle.png"",""images/Red_Circle.png"",""images/Red_Circle.png""]","true","[[211,214],[159,4],[3,155]]","true",""
"visual-search-circle","111","2.2.0","334533","78409","visual_search_trial","2160","","j","","","","","","","","","","null","blue_triangle","5","[""images/Blue_Triangle.png"",""images/Blue_Triangle.png"",""images/Blue_Triangle.png""]","true","[[36,36],[92,245],[245,92]]","false",""
"visual-search-circle","112","2.2.0","337509","78409","visual_search_trial","1473","","j","","","","","","","","","","null","red_circle","5","[""images/Red_Circle.png"",""images/Red_Circle.png"",""images/Red_Circle.png"",""images/Red_Circle.png"",""images/Red_Circle.png"",""images/Red_Circle.png""]","true","[[51,226],[175,239],[249,138],[198,23],[74,10],[0,111]]","false",""
"visual-search-circle","113","2.2.0","339943","78409","visual_search_trial","930","","j","","","","","","","","","","null","red_blue_mix","5","[""images/Red_Circle.png"",""images/Blue_Triangle.png"",""images/Blue_Circle.png"",""images/Red_Circle.png"",""images/Blue_Circle.png"",""images/Red_Circle.png""]","true","[[80,241],[203,222],[248,105],[169,8],[46,27],[1,144]]","false",""
"visual-search-circle","114","2.2.0","346856","78409","visual_search_trial","5410","","j","","","","","","","","","","null","red_circle","5","[""images/Red_Circle.png"",""images/Red_Circle.png"",""images/Red_Circle.png""]","true","[[129,249],[231,58],[14,66]]","false",""
"visual-search-circle","115","2.2.0","349844","78409","visual_search_trial","1483","","f","","","","","","","","","","null","red_blue_mix","5","[""images/Red_Triangle.png"",""images/Red_Circle.png"",""images/Blue_Circle.png"",""images/Red_Circle.png"",""images/Blue_Triangle.png"",""images/Red_Circle.png"",""images/Red_Circle.png"",""images/Blue_Triangle.png"",""images/Blue_Circle.png""]","true","[[33,210],[109,249],[193,229],[244,161],[240,76],[181,13],[96,3],[25,49],[0,131]]","true",""
"visual-search-circle","116","2.2.0","352267","78409","visual_search_trial","920","","j","","","","","","","","","","null","blue_triangle","5","[""images/Blue_Triangle.png"",""images/Blue_Triangle.png"",""images/Blue_Triangle.png"",""images/Blue_Triangle.png"",""images/Blue_Triangle.png"",""images/Blue_Triangle.png"",""images/Blue_Triangle.png"",""images/Blue_Triangle.png"",""images/Blue_Triangle.png""]","true","[[177,238],[238,177],[245,92],[196,22],[114,0],[36,36],[0,114],[22,196],[92,245]]","false",""
"visual-search-circle","117","2.2.0","354534","78409","visual_search_trial","764","","j","","","","","","","","","","null","red_blue_mix","5","[""images/Blue_Circle.png"",""images/Blue_Triangle.png"",""images/Blue_Triangle.png""]","true","[[140,0],[9,173],[224,200]]","false",""
"visual-search-circle","118","2.2.0","356920","78409","visual_search_trial","881","","j","","","","","","","","","","null","red_circle","5","[""images/Red_Circle.png"",""images/Red_Circle.png"",""images/Red_Circle.png"",""images/Red_Circle.png"",""images/Red_Circle.png"",""images/Red_Circle.png"",""images/Red_Circle.png"",""images/Red_Circle.png"",""images/Red_Circle.png""]","true","[[12,70],[3,155],[51,226],[133,249],[211,214],[249,138],[228,55],[159,4],[74,10]]","false",""
"visual-search-circle","119","2.2.0","359110","78409","visual_search_trial","686","","f","","","","","","","","","","null","blue_triangle","5","[""images/Red_Triangle.png"",""images/Blue_Triangle.png"",""images/Blue_Triangle.png""]","true","[[0,114],[177,238],[196,22]]","true",""
"visual-search-circle","120","2.2.0","361705","78409","visual_search_trial","1090","","j","","","","","","","","","","null","red_blue_mix","5","[""images/Blue_Circle.png"",""images/Blue_Triangle.png"",""images/Blue_Triangle.png"",""images/Blue_Circle.png"",""images/Blue_Circle.png"",""images/Blue_Circle.png"",""images/Red_Circle.png"",""images/Blue_Circle.png"",""images/Red_Circle.png""]","true","[[94,3],[23,51],[0,133],[35,211],[111,249],[194,228],[245,159],[239,74],[179,12]]","false",""
"visual-search-circle","121","2.2.0","363817","78409","visual_search_trial","609","","j","","","","","","","","","","null","blue_triangle","5","[""images/Blue_Triangle.png"",""images/Blue_Triangle.png"",""images/Blue_Triangle.png"",""images/Blue_Triangle.png"",""images/Blue_Triangle.png"",""images/Blue_Triangle.png""]","true","[[46,27],[1,144],[80,241],[203,222],[248,105],[169,8]]","false",""
"visual-search-circle","122","2.2.0","366114","78409","visual_search_trial","792","","f","","","","","","","","","","null","red_circle","5","[""images/Red_Triangle.png"",""images/Red_Circle.png"",""images/Red_Circle.png"",""images/Red_Circle.png"",""images/Red_Circle.png"",""images/Red_Circle.png"",""images/Red_Circle.png"",""images/Red_Circle.png"",""images/Red_Circle.png""]","true","[[84,6],[17,60],[1,144],[42,219],[122,249],[203,222],[247,148],[234,64],[169,8]]","true",""
"visual-search-circle","123","2.2.0","368345","78409","visual_search_trial","727","","f","","","","","","","","","","null","blue_triangle","5","[""images/Red_Triangle.png"",""images/Blue_Triangle.png"",""images/Blue_Triangle.png"",""images/Blue_Triangle.png"",""images/Blue_Triangle.png"",""images/Blue_Triangle.png""]","true","[[17,189],[127,249],[234,185],[232,60],[122,0],[15,64]]","true",""
"visual-search-circle","124","2.2.0","370789","78409","visual_search_trial","940","","f","","","","","","","","","","null","red_blue_mix","5","[""images/Red_Triangle.png"",""images/Blue_Triangle.png"",""images/Blue_Triangle.png""]","true","[[11,177],[227,196],[135,0]]","true",""
"html-keyboard-response","125","2.1.0","372303","78409","break","1513","<p>Great job so far! Please rest for a few seconds before continuing.</p>
                 <p>Press the <strong>K</strong> key on your keyboard to continue.</p>","k","","","","","","","","","","","","","","","","","K"
"visual-search-circle","126","2.2.0","375187","78409","visual_search_trial","1379","","f","","","","","","","","","","null","red_circle","6","[""images/Red_Triangle.png"",""images/Red_Circle.png"",""images/Red_Circle.png"",""images/Red_Circle.png"",""images/Red_Circle.png"",""images/Red_Circle.png"",""images/Red_Circle.png"",""images/Red_Circle.png"",""images/Red_Circle.png""]","true","[[175,10],[90,4],[21,55],[0,138],[38,214],[116,249],[198,226],[246,155],[237,70]]","true",""
"visual-search-circle","127","2.2.0","377398","78409","visual_search_trial","708","","f","","","","","","","","","","null","red_blue_mix","6","[""images/Red_Triangle.png"",""images/Blue_Circle.png"",""images/Red_Circle.png""]","true","[[229,56],[13,68],[131,249]]","true",""
"visual-search-circle","128","2.2.0","379831","78409","visual_search_trial","929","","j","","","","","","","","","","null","red_circle","6","[""images/Red_Circle.png"",""images/Red_Circle.png"",""images/Red_Circle.png""]","true","[[46,27],[80,241],[248,105]]","false",""
"visual-search-circle","129","2.2.0","383597","78409","visual_search_trial","2262","","j","","","","","","","","","","null","blue_triangle","6","[""images/Blue_Triangle.png"",""images/Blue_Triangle.png"",""images/Blue_Triangle.png"",""images/Blue_Triangle.png"",""images/Blue_Triangle.png"",""images/Blue_Triangle.png""]","true","[[216,210],[244,88],[153,3],[33,39],[5,161],[96,246]]","false",""
"visual-search-circle","130","2.2.0","386183","78409","visual_search_trial","1080","","f","","","","","","","","","","null","red_blue_mix","6","[""images/Red_Triangle.png"",""images/Blue_Triangle.png"",""images/Blue_Triangle.png"",""images/Red_Circle.png"",""images/Blue_Triangle.png"",""images/Blue_Circle.png"",""images/Blue_Circle.png"",""images/Blue_Triangle.png"",""images/Blue_Triangle.png""]","true","[[246,94],[198,23],[116,0],[38,35],[0,111],[21,194],[90,245],[175,239],[237,179]]","true",""
"visual-search-circle","131","2.2.0","388554","78409","visual_search_trial","869","","f","","","","","","","","","","null","red_circle","6","[""images/Red_Triangle.png"",""images/Red_Circle.png"",""images/Red_Circle.png""]","true","[[20,193],[236,181],[118,0]]","true",""
"visual-search-circle","132","2.2.0","391322","78409","visual_search_trial","1262","","j","","","","","","","","","","null","blue_triangle","6","[""images/Blue_Triangle.png"",""images/Blue_Triangle.png"",""images/Blue_Triangle.png"",""images/Blue_Triangle.png"",""images/Blue_Triangle.png"",""images/Blue_Triangle.png"",""images/Blue_Triangle.png"",""images/Blue_Triangle.png"",""images/Blue_Triangle.png""]","true","[[122,249],[203,222],[247,148],[234,64],[169,8],[84,6],[17,60],[1,144],[42,219]]","false",""
"visual-search-circle","133","2.2.0","393367","78409","visual_search_trial","542","","f","","","","","","","","","","null","red_circle","6","[""images/Red_Triangle.png"",""images/Red_Circle.png"",""images/Red_Circle.png"",""images/Red_Circle.png"",""images/Red_Circle.png"",""images/Red_Circle.png""]","true","[[99,2],[6,86],[32,208],[150,247],[243,163],[217,41]]","true",""
"visual-search-circle","134","2.2.0","395565","78409","visual_search_trial","694","","j","","","","","","","","","","null","blue_triangle","6","[""images/Blue_Triangle.png"",""images/Blue_Triangle.png"",""images/Blue_Triangle.png""]","true","[[64,234],[249,122],[60,17]]","false",""
"visual-search-circle","135","2.2.0","397868","78409","visual_search_trial","800","","j","","","","","","","","","","null","red_circle","6","[""images/Red_Circle.png"",""images/Red_Circle.png"",""images/Red_Circle.png"",""images/Red_Circle.png"",""images/Red_Circle.png"",""images/Red_Circle.png""]","true","[[185,234],[249,127],[189,17],[64,15],[0,122],[60,232]]","false",""
"visual-search-circle","136","2.2.0","400035","78409","visual_search_trial","663","","j","","","","","","","","","","null","red_blue_mix","6","[""images/Blue_Circle.png"",""images/Red_Circle.png"",""images/Blue_Circle.png"",""images/Red_Circle.png"",""images/Blue_Circle.png"",""images/Blue_Circle.png""]","true","[[217,41],[99,2],[6,86],[32,208],[150,247],[243,163]]","false",""
"visual-search-circle","137","2.2.0","402033","78409","visual_search_trial","493","","j","","","","","","","","","","null","red_circle","6","[""images/Red_Circle.png"",""images/Red_Circle.png"",""images/Red_Circle.png"",""images/Red_Circle.png"",""images/Red_Circle.png"",""images/Red_Circle.png"",""images/Red_Circle.png"",""images/Red_Circle.png"",""images/Red_Circle.png""]","true","[[216,39],[140,0],[56,20],[5,88],[9,173],[68,236],[153,246],[224,200],[249,118]]","false",""
"visual-search-circle","138","2.2.0","405275","78409","visual_search_trial","1738","","f","","","","","","","","","","null","blue_triangle","6","[""images/Red_Triangle.png"",""images/Blue_Triangle.png"",""images/Blue_Triangle.png"",""images/Blue_Triangle.png"",""images/Blue_Triangle.png"",""images/Blue_Triangle.png""]","true","[[42,219],[165,243],[247,148],[207,30],[84,6],[2,101]]","true",""
"visual-search-circle","139","2.2.0","407375","78409","visual_search_trial","596","","f","","","","","","","","","","null","red_blue_mix","6","[""images/Red_Triangle.png"",""images/Blue_Circle.png"",""images/Blue_Triangle.png"",""images/Red_Circle.png"",""images/Blue_Triangle.png"",""images/Blue_Circle.png""]","true","[[70,237],[194,228],[249,116],[179,12],[55,21],[0,133]]","true",""
"visual-search-circle","140","2.2.0","409905","78409","visual_search_trial","1024","","f","","","","","","","","","","null","blue_triangle","6","[""images/Red_Triangle.png"",""images/Blue_Triangle.png"",""images/Blue_Triangle.png"",""images/Blue_Triangle.png"",""images/Blue_Triangle.png"",""images/Blue_Triangle.png"",""images/Blue_Triangle.png"",""images/Blue_Triangle.png"",""images/Blue_Triangle.png""]","true","[[165,243],[232,189],[248,105],[207,30],[127,0],[46,27],[2,101],[15,185],[80,241]]","true",""
"visual-search-circle","141","2.2.0","413955","78409","visual_search_trial","2545","","j","","","","","","","","","","null","red_blue_mix","6","[""images/Blue_Triangle.png"",""images/Red_Circle.png"",""images/Red_Circle.png"",""images/Blue_Circle.png"",""images/Blue_Triangle.png"",""images/Red_Circle.png"",""images/Red_Circle.png"",""images/Blue_Triangle.png"",""images/Blue_Circle.png""]","true","[[219,207],[249,127],[222,46],[148,2],[64,15],[8,80],[6,165],[60,232],[144,248]]","false",""
"visual-search-circle","142","2.2.0","416767","78409","visual_search_trial","1308","","f","","","","","","","","","","null","blue_triangle","6","[""images/Red_Triangle.png"",""images/Blue_Triangle.png"",""images/Blue_Triangle.png""]","true","[[163,243],[208,32],[2,99]]","true",""
"visual-search-circle","143","2.2.0","419711","78409","visual_search_trial","1442","","j","","","","","","","","","","null","red_blue_mix","6","[""images/Blue_Circle.png"",""images/Blue_Circle.png"",""images/Red_Circle.png""]","true","[[9,173],[224,200],[140,0]]","false",""
"visual-search-circle","144","2.2.0","422241","78409","visual_search_trial","1024","","f","","","","","","","","","","null","red_circle","7","[""images/Red_Triangle.png"",""images/Red_Circle.png"",""images/Red_Circle.png"",""images/Red_Circle.png"",""images/Red_Circle.png"",""images/Red_Circle.png"",""images/Red_Circle.png"",""images/Red_Circle.png"",""images/Red_Circle.png""]","true","[[234,64],[169,8],[84,6],[17,60],[1,144],[42,219],[122,249],[203,222],[247,148]]","true",""
"visual-search-circle","145","2.2.0","424430","78409","visual_search_trial","683","","f","","","","","","","","","","null","red_blue_mix","7","[""images/Red_Triangle.png"",""images/Blue_Circle.png"",""images/Red_Circle.png"",""images/Red_Circle.png"",""images/Red_Circle.png"",""images/Red_Circle.png"",""images/Red_Circle.png"",""images/Blue_Circle.png"",""images/Blue_Triangle.png""]","true","[[17,60],[1,144],[42,219],[122,249],[203,222],[247,148],[234,64],[169,8],[84,6]]","true",""
"visual-search-circle","146","2.2.0","426563","78409","visual_search_trial","629","","f","","","","","","","","","","null","blue_triangle","7","[""images/Red_Triangle.png"",""images/Blue_Triangle.png"",""images/Blue_Triangle.png"",""images/Blue_Triangle.png"",""images/Blue_Triangle.png"",""images/Blue_Triangle.png""]","true","[[122,0],[15,64],[17,189],[127,249],[234,185],[232,60]]","true",""
"visual-search-circle","147","2.2.0","428882","78409","visual_search_trial","814","","j","","","","","","","","","","null","red_circle","7","[""images/Red_Circle.png"",""images/Red_Circle.png"",""images/Red_Circle.png"",""images/Red_Circle.png"",""images/Red_Circle.png"",""images/Red_Circle.png"",""images/Red_Circle.png"",""images/Red_Circle.png"",""images/Red_Circle.png""]","true","[[5,161],[56,229],[140,249],[216,210],[249,131],[224,49],[153,3],[68,13],[9,76]]","false",""
"visual-search-circle","148","2.2.0","431467","78409","visual_search_trial","1081","","f","","","","","","","","","","null","blue_triangle","7","[""images/Red_Triangle.png"",""images/Blue_Triangle.png"",""images/Blue_Triangle.png"",""images/Blue_Triangle.png"",""images/Blue_Triangle.png"",""images/Blue_Triangle.png"",""images/Blue_Triangle.png"",""images/Blue_Triangle.png"",""images/Blue_Triangle.png""]","true","[[11,177],[72,238],[157,245],[227,196],[249,114],[213,36],[135,0],[53,22],[4,92]]","true",""
"visual-search-circle","149","2.2.0","434169","78409","visual_search_trial","1198","","f","","","","","","","","","","null","red_blue_mix","7","[""images/Red_Triangle.png"",""images/Red_Circle.png"",""images/Blue_Triangle.png"",""images/Red_Circle.png"",""images/Blue_Triangle.png"",""images/Red_Circle.png""]","true","[[6,86],[32,208],[150,247],[243,163],[217,41],[99,2]]","true",""
"visual-search-circle","150","2.2.0","436582","78409","visual_search_trial","909","","j","","","","","","","","","","null","blue_triangle","7","[""images/Blue_Triangle.png"",""images/Blue_Triangle.png"",""images/Blue_Triangle.png""]","true","[[240,78],[26,48],[107,248]]","false",""
"visual-search-circle","151","2.2.0","439303","78409","visual_search_trial","1218","","j","","","","","","","","","","null","red_blue_mix","7","[""images/Red_Circle.png"",""images/Blue_Triangle.png"",""images/Blue_Circle.png"",""images/Red_Circle.png"",""images/Blue_Triangle.png"",""images/Blue_Circle.png""]","true","[[3,153],[88,244],[210,216],[246,96],[161,5],[39,33]]","false",""
"visual-search-circle","152","2.2.0","441391","78409","visual_search_trial","584","","f","","","","","","","","","","null","red_circle","7","[""images/Red_Triangle.png"",""images/Red_Circle.png"",""images/Red_Circle.png"",""images/Red_Circle.png"",""images/Red_Circle.png"",""images/Red_Circle.png""]","true","[[78,9],[1,107],[48,223],[171,240],[248,142],[201,26]]","true",""
"visual-search-circle","153","2.2.0","443535","78409","visual_search_trial","641","","f","","","","","","","","","","null","red_blue_mix","7","[""images/Red_Triangle.png"",""images/Blue_Triangle.png"",""images/Blue_Triangle.png""]","true","[[135,249],[227,53],[11,72]]","true",""
"visual-search-circle","154","2.2.0","445679","78409","visual_search_trial","639","","j","","","","","","","","","","null","blue_triangle","7","[""images/Blue_Triangle.png"",""images/Blue_Triangle.png"",""images/Blue_Triangle.png"",""images/Blue_Triangle.png"",""images/Blue_Triangle.png"",""images/Blue_Triangle.png"",""images/Blue_Triangle.png"",""images/Blue_Triangle.png"",""images/Blue_Triangle.png""]","true","[[78,240],[163,243],[231,191],[248,107],[208,32],[129,0],[48,26],[2,99],[14,183]]","false",""
"visual-search-circle","155","2.2.0","448068","78409","visual_search_trial","885","","j","","","","","","","","","","null","red_blue_mix","7","[""images/Red_Circle.png"",""images/Red_Circle.png"",""images/Blue_Triangle.png""]","true","[[116,0],[21,194],[237,179]]","false",""
"visual-search-circle","156","2.2.0","450216","78409","visual_search_trial","645","","j","","","","","","","","","","null","red_circle","7","[""images/Red_Circle.png"",""images/Red_Circle.png"",""images/Red_Circle.png""]","true","[[229,56],[13,68],[131,249]]","false",""
"visual-search-circle","157","2.2.0","452547","78409","visual_search_trial","827","","j","","","","","","","","","","null","blue_triangle","7","[""images/Blue_Triangle.png"",""images/Blue_Triangle.png"",""images/Blue_Triangle.png"",""images/Blue_Triangle.png"",""images/Blue_Triangle.png"",""images/Blue_Triangle.png""]","true","[[243,163],[217,41],[99,2],[6,86],[32,208],[150,247]]","false",""
"visual-search-circle","158","2.2.0","454985","78409","visual_search_trial","934","","j","","","","","","","","","","null","red_circle","7","[""images/Red_Circle.png"",""images/Red_Circle.png"",""images/Red_Circle.png"",""images/Red_Circle.png"",""images/Red_Circle.png"",""images/Red_Circle.png""]","true","[[60,232],[185,234],[249,127],[189,17],[64,15],[0,122]]","false",""
"visual-search-circle","159","2.2.0","456973","78409","visual_search_trial","485","","f","","","","","","","","","","null","blue_triangle","7","[""images/Red_Triangle.png"",""images/Blue_Triangle.png"",""images/Blue_Triangle.png""]","true","[[56,20],[68,236],[249,118]]","true",""
"visual-search-circle","160","2.2.0","459732","78409","visual_search_trial","1256","","f","","","","","","","","","","null","red_circle","7","[""images/Red_Triangle.png"",""images/Red_Circle.png"",""images/Red_Circle.png""]","true","[[229,193],[131,0],[13,181]]","true",""
"visual-search-circle","161","2.2.0","462381","78409","visual_search_trial","1144","","j","","","","","","","","","","null","red_blue_mix","7","[""images/Red_Circle.png"",""images/Red_Circle.png"",""images/Red_Circle.png"",""images/Blue_Triangle.png"",""images/Red_Circle.png"",""images/Blue_Circle.png"",""images/Blue_Triangle.png"",""images/Red_Circle.png"",""images/Blue_Circle.png""]","true","[[74,10],[12,70],[3,155],[51,226],[133,249],[211,214],[249,138],[228,55],[159,4]]","false",""
"html-keyboard-response","162","2.1.0","465404","78409","break","3022","<p>Great job so far! Please rest for a few seconds before continuing.</p>
                 <p>Press the <strong>O</strong> key on your keyboard to continue.</p>","o","","","","","","","","","","","","","","","","","O"
"visual-search-circle","163","2.2.0","467991","78409","visual_search_trial","1082","","f","","","","","","","","","","null","red_blue_mix","8","[""images/Red_Triangle.png"",""images/Blue_Circle.png"",""images/Red_Circle.png"",""images/Blue_Circle.png"",""images/Blue_Triangle.png"",""images/Blue_Triangle.png"",""images/Red_Circle.png"",""images/Red_Circle.png"",""images/Red_Circle.png""]","true","[[60,232],[144,248],[219,207],[249,127],[222,46],[148,2],[64,15],[8,80],[6,165]]","true",""
"visual-search-circle","164","2.2.0","470849","78409","visual_search_trial","1355","","j","","","","","","","","","","null","red_circle","8","[""images/Red_Triangle.png"",""images/Red_Circle.png"",""images/Red_Circle.png""]","false","[[116,249],[237,70],[21,55]]","true",""
"visual-search-circle","165","2.2.0","473256","78409","visual_search_trial","902","","f","","","","","","","","","","null","blue_triangle","8","[""images/Red_Triangle.png"",""images/Blue_Triangle.png"",""images/Blue_Triangle.png"",""images/Blue_Triangle.png"",""images/Blue_Triangle.png"",""images/Blue_Triangle.png"",""images/Blue_Triangle.png"",""images/Blue_Triangle.png"",""images/Blue_Triangle.png""]","true","[[72,238],[157,245],[227,196],[249,114],[213,36],[135,0],[53,22],[4,92],[11,177]]","true",""
"visual-search-circle","166","2.2.0","475608","78409","visual_search_trial","847","","f","","","","","","","","","","null","red_circle","8","[""images/Red_Triangle.png"",""images/Red_Circle.png"",""images/Red_Circle.png"",""images/Red_Circle.png"",""images/Red_Circle.png"",""images/Red_Circle.png"",""images/Red_Circle.png"",""images/Red_Circle.png"",""images/Red_Circle.png""]","true","[[224,200],[249,118],[216,39],[140,0],[56,20],[5,88],[9,173],[68,236],[153,246]]","true",""
"visual-search-circle","167","2.2.0","477963","78409","visual_search_trial","850","","j","","","","","","","","","","null","blue_triangle","8","[""images/Blue_Triangle.png"",""images/Blue_Triangle.png"",""images/Blue_Triangle.png"",""images/Blue_Triangle.png"",""images/Blue_Triangle.png"",""images/Blue_Triangle.png"",""images/Blue_Triangle.png"",""images/Blue_Triangle.png"",""images/Blue_Triangle.png""]","true","[[198,226],[246,155],[237,70],[175,10],[90,4],[21,55],[0,138],[38,214],[116,249]]","false",""
"visual-search-circle","168","2.2.0","480743","78409","visual_search_trial","1276","","j","","","","","","","","","","null","red_blue_mix","8","[""images/Blue_Circle.png"",""images/Red_Circle.png"",""images/Red_Circle.png"",""images/Red_Circle.png"",""images/Blue_Triangle.png"",""images/Blue_Circle.png""]","true","[[169,8],[46,27],[1,144],[80,241],[203,222],[248,105]]","false",""
"visual-search-circle","169","2.2.0","485372","78409","visual_search_trial","3126","","j","","","","","","","","","","null","red_circle","8","[""images/Red_Circle.png"",""images/Red_Circle.png"",""images/Red_Circle.png"",""images/Red_Circle.png"",""images/Red_Circle.png"",""images/Red_Circle.png""]","true","[[92,4],[4,92],[36,213],[157,245],[245,157],[213,36]]","false",""
"visual-search-circle","170","2.2.0","487626","78409","visual_search_trial","750","","f","","","","","","","","","","null","red_blue_mix","8","[""images/Red_Triangle.png"",""images/Red_Circle.png"",""images/Red_Circle.png""]","true","[[74,10],[51,226],[249,138]]","true",""
"visual-search-circle","171","2.2.0","493978","78409","visual_search_trial","4849","","j","","","","","","","","","","null","blue_triangle","8","[""images/Blue_Triangle.png"",""images/Blue_Triangle.png"",""images/Blue_Triangle.png""]","true","[[242,167],[103,1],[29,205]]","false",""
"visual-search-circle","172","2.2.0","496365","78409","visual_search_trial","883","","f","","","","","","","","","","null","red_blue_mix","8","[""images/Red_Triangle.png"",""images/Red_Circle.png"",""images/Red_Circle.png"",""images/Red_Circle.png"",""images/Blue_Triangle.png"",""images/Blue_Triangle.png""]","true","[[235,66],[129,0],[18,58],[14,183],[120,249],[231,191]]","true",""
"visual-search-circle","173","2.2.0","500518","78409","visual_search_trial","2648","","j","","","","","","","","","","null","red_circle","8","[""images/Red_Circle.png"",""images/Red_Circle.png"",""images/Red_Circle.png"",""images/Red_Circle.png"",""images/Red_Circle.png"",""images/Red_Circle.png"",""images/Red_Circle.png"",""images/Red_Circle.png"",""images/Red_Circle.png""]","true","[[62,16],[7,82],[7,167],[62,233],[146,248],[220,205],[250,125],[220,44],[146,1]]","false",""
"visual-search-circle","174","2.2.0","502625","78409","visual_search_trial","604","","f","","","","","","","","","","null","blue_triangle","8","[""images/Red_Triangle.png"",""images/Blue_Triangle.png"",""images/Blue_Triangle.png""]","true","[[0,118],[181,236],[193,20]]","true",""
"visual-search-circle","175","2.2.0","505065","78409","visual_search_trial","937","","j","","","","","","","","","","null","red_blue_mix","8","[""images/Blue_Triangle.png"",""images/Red_Circle.png"",""images/Blue_Triangle.png""]","true","[[203,222],[169,8],[1,144]]","false",""
"visual-search-circle","176","2.2.0","507637","78409","visual_search_trial","1069","","j","","","","","","","","","","null","red_circle","8","[""images/Red_Circle.png"",""images/Red_Circle.png"",""images/Red_Circle.png""]","true","[[183,14],[0,129],[191,231]]","false",""
"visual-search-circle","177","2.2.0","509895","78409","visual_search_trial","754","","j","","","","","","","","","","null","blue_triangle","8","[""images/Blue_Triangle.png"",""images/Blue_Triangle.png"",""images/Blue_Triangle.png"",""images/Blue_Triangle.png"",""images/Blue_Triangle.png"",""images/Blue_Triangle.png""]","true","[[111,0],[10,74],[23,198],[138,249],[239,175],[226,51]]","false",""
"visual-search-circle","178","2.2.0","513044","78409","visual_search_trial","1644","","j","","","","","","","","","","null","red_blue_mix","8","[""images/Red_Circle.png"",""images/Blue_Circle.png"",""images/Blue_Triangle.png"",""images/Blue_Triangle.png"",""images/Blue_Triangle.png"",""images/Red_Circle.png"",""images/Blue_Triangle.png"",""images/Red_Circle.png"",""images/Blue_Triangle.png""]","true","[[84,243],[169,241],[234,185],[247,101],[203,27],[122,0],[42,30],[1,105],[17,189]]","false",""
"visual-search-circle","179","2.2.0","515825","78409","visual_search_trial","1276","","f","","","","","","","","","","null","red_circle","8","[""images/Red_Triangle.png"",""images/Red_Circle.png"",""images/Red_Circle.png"",""images/Red_Circle.png"",""images/Red_Circle.png"",""images/Red_Circle.png""]","true","[[0,109],[49,224],[173,240],[249,140],[200,25],[76,9]]","true",""
"visual-search-circle","180","2.2.0","517962","78409","visual_search_trial","633","","f","","","","","","","","","","null","blue_triangle","8","[""images/Red_Triangle.png"",""images/Blue_Triangle.png"",""images/Blue_Triangle.png"",""images/Blue_Triangle.png"",""images/Blue_Triangle.png"",""images/Blue_Triangle.png""]","true","[[138,0],[23,51],[10,175],[111,249],[226,198],[239,74]]","true",""
"visual-search-circle","181","2.2.0","520420","78409","visual_search_trial","954","","f","","","","","","","","","","null","blue_triangle","9","[""images/Red_Triangle.png"",""images/Blue_Triangle.png"",""images/Blue_Triangle.png"",""images/Blue_Triangle.png"",""images/Blue_Triangle.png"",""images/Blue_Triangle.png""]","true","[[80,241],[203,222],[248,105],[169,8],[46,27],[1,144]]","true",""
"visual-search-circle","182","2.2.0","524768","78409","visual_search_trial","2842","","f","","","","","","","","","","null","red_circle","9","[""images/Red_Triangle.png"",""images/Red_Circle.png"",""images/Red_Circle.png"",""images/Red_Circle.png"",""images/Red_Circle.png"",""images/Red_Circle.png"",""images/Red_Circle.png"",""images/Red_Circle.png"",""images/Red_Circle.png""]","true","[[0,140],[39,216],[118,249],[200,224],[246,153],[236,68],[173,9],[88,5],[20,56]]","true",""
"visual-search-circle","183","2.2.0","527020","78409","visual_search_trial","749","","j","","","","","","","","","","null","red_blue_mix","9","[""images/Blue_Circle.png"",""images/Red_Circle.png"",""images/Red_Circle.png""]","true","[[219,42],[6,84],[148,247]]","false",""
"visual-search-circle","184","2.2.0","529153","78409","visual_search_trial","630","","f","","","","","","","","","","null","blue_triangle","9","[""images/Red_Triangle.png"",""images/Blue_Triangle.png"",""images/Blue_Triangle.png""]","true","[[133,0],[12,179],[228,194]]","true",""
"visual-search-circle","185","2.2.0","531490","78409","visual_search_trial","833","","j","","","","","","","","","","null","red_blue_mix","9","[""images/Blue_Triangle.png"",""images/Blue_Triangle.png"",""images/Blue_Triangle.png"",""images/Blue_Triangle.png"",""images/Blue_Circle.png"",""images/Red_Circle.png""]","true","[[244,88],[153,3],[33,39],[5,161],[96,246],[216,210]]","false",""
"visual-search-circle","186","2.2.0","533598","78409","visual_search_trial","603","","f","","","","","","","","","","null","blue_triangle","9","[""images/Red_Triangle.png"",""images/Blue_Triangle.png"",""images/Blue_Triangle.png"",""images/Blue_Triangle.png"",""images/Blue_Triangle.png"",""images/Blue_Triangle.png"",""images/Blue_Triangle.png"",""images/Blue_Triangle.png"",""images/Blue_Triangle.png""]","true","[[247,101],[203,27],[122,0],[42,30],[1,105],[17,189],[84,243],[169,241],[234,185]]","true",""
"visual-search-circle","187","2.2.0","535705","78409","visual_search_trial","603","","f","","","","","","","","","","null","red_blue_mix","9","[""images/Red_Triangle.png"",""images/Blue_Circle.png"",""images/Blue_Triangle.png""]","true","[[2,148],[207,219],[165,6]]","true",""
"visual-search-circle","188","2.2.0","537713","78409","visual_search_trial","505","","f","","","","","","","","","","null","red_circle","9","[""images/Red_Triangle.png"",""images/Red_Circle.png"",""images/Red_Circle.png"",""images/Red_Circle.png"",""images/Red_Circle.png"",""images/Red_Circle.png""]","true","[[118,249],[229,193],[236,68],[131,0],[20,56],[13,181]]","true",""
"visual-search-circle","189","2.2.0","539865","78409","visual_search_trial","647","","f","","","","","","","","","","null","red_blue_mix","9","[""images/Red_Triangle.png"",""images/Blue_Circle.png"",""images/Blue_Triangle.png"",""images/Red_Circle.png"",""images/Blue_Triangle.png"",""images/Blue_Triangle.png""]","true","[[173,240],[249,140],[200,25],[76,9],[0,109],[49,224]]","true",""
"visual-search-circle","190","2.2.0","542011","78409","visual_search_trial","640","","j","","","","","","","","","","null","red_circle","9","[""images/Red_Circle.png"",""images/Red_Circle.png"",""images/Red_Circle.png"",""images/Red_Circle.png"",""images/Red_Circle.png"",""images/Red_Circle.png"",""images/Red_Circle.png"",""images/Red_Circle.png"",""images/Red_Circle.png""]","true","[[248,146],[233,62],[167,7],[82,7],[16,62],[1,146],[44,220],[124,250],[205,220]]","false",""
"visual-search-circle","191","2.2.0","544586","78409","visual_search_trial","1072","","j","","","","","","","","","","null","blue_triangle","9","[""images/Blue_Triangle.png"",""images/Blue_Triangle.png"",""images/Blue_Triangle.png"",""images/Blue_Triangle.png"",""images/Blue_Triangle.png"",""images/Blue_Triangle.png""]","true","[[10,175],[111,249],[226,198],[239,74],[138,0],[23,51]]","false",""
"visual-search-circle","192","2.2.0","547361","78409","visual_search_trial","1271","","j","","","","","","","","","","null","red_circle","9","[""images/Red_Circle.png"",""images/Red_Circle.png"",""images/Red_Circle.png""]","true","[[249,138],[74,10],[51,226]]","false",""
"visual-search-circle","193","2.2.0","549381","78409","visual_search_trial","516","","j","","","","","","","","","","null","blue_triangle","9","[""images/Blue_Triangle.png"",""images/Blue_Triangle.png"",""images/Blue_Triangle.png"",""images/Blue_Triangle.png"",""images/Blue_Triangle.png"",""images/Blue_Triangle.png"",""images/Blue_Triangle.png"",""images/Blue_Triangle.png"",""images/Blue_Triangle.png""]","true","[[0,109],[20,193],[88,244],[173,240],[236,181],[246,96],[200,25],[118,0],[39,33]]","false",""
"visual-search-circle","194","2.2.0","552070","78409","visual_search_trial","1184","","j","","","","","","","","","","null","red_blue_mix","9","[""images/Red_Circle.png"",""images/Blue_Triangle.png"",""images/Red_Circle.png"",""images/Red_Circle.png"",""images/Blue_Circle.png"",""images/Blue_Triangle.png"",""images/Blue_Triangle.png"",""images/Red_Circle.png"",""images/Blue_Triangle.png""]","true","[[39,33],[0,109],[20,193],[88,244],[173,240],[236,181],[246,96],[200,25],[118,0]]","false",""
"visual-search-circle","195","2.2.0","555525","78409","visual_search_trial","1951","","j","","","","","","","","","","null","blue_triangle","9","[""images/Blue_Triangle.png"",""images/Blue_Triangle.png"",""images/Blue_Triangle.png""]","true","[[60,17],[64,234],[249,122]]","false",""
"visual-search-circle","196","2.2.0","559939","78409","visual_search_trial","2911","","j","","","","","","","","","","null","red_circle","9","[""images/Red_Circle.png"",""images/Red_Circle.png"",""images/Red_Circle.png"",""images/Red_Circle.png"",""images/Red_Circle.png"",""images/Red_Circle.png""]","true","[[189,232],[249,122],[185,15],[60,17],[0,127],[64,234]]","false",""
"visual-search-circle","197","2.2.0","562639","78409","visual_search_trial","1195","","f","","","","","","","","","","null","red_blue_mix","9","[""images/Red_Triangle.png"",""images/Blue_Circle.png"",""images/Red_Circle.png"",""images/Blue_Triangle.png"",""images/Blue_Circle.png"",""images/Blue_Triangle.png"",""images/Blue_Triangle.png"",""images/Blue_Triangle.png"",""images/Red_Circle.png""]","true","[[11,72],[4,157],[53,227],[135,249],[213,213],[249,135],[227,53],[157,4],[72,11]]","true",""
"visual-search-circle","198","2.2.0","564975","78409","visual_search_trial","832","","f","","","","","","","","","","null","red_circle","9","[""images/Red_Triangle.png"",""images/Red_Circle.png"",""images/Red_Circle.png""]","true","[[80,8],[46,222],[248,144]]","true",""
"html-keyboard-response","199","2.1.0","566397","78409","break","1421","<p>Great job so far! Please rest for a few seconds before continuing.</p>
                 <p>Press the <strong>E</strong> key on your keyboard to continue.</p>","e","","","","","","","","","","","","","","","","","E"
"visual-search-circle","200","2.2.0","583936","78409","visual_search_trial","16035","","f","","","","","","","","","","null","red_blue_mix","10","[""images/Red_Triangle.png"",""images/Red_Circle.png"",""images/Blue_Triangle.png"",""images/Blue_Circle.png"",""images/Blue_Triangle.png"",""images/Blue_Triangle.png"",""images/Red_Circle.png"",""images/Blue_Circle.png"",""images/Blue_Triangle.png""]","true","[[11,177],[72,238],[157,245],[227,196],[249,114],[213,36],[135,0],[53,22],[4,92]]","true",""
"visual-search-circle","201","2.2.0","588528","78409","visual_search_trial","3088","","f","","","","","","","","","","null","blue_triangle","10","[""images/Red_Triangle.png"",""images/Blue_Triangle.png"",""images/Blue_Triangle.png"",""images/Blue_Triangle.png"",""images/Blue_Triangle.png"",""images/Blue_Triangle.png"",""images/Blue_Triangle.png"",""images/Blue_Triangle.png"",""images/Blue_Triangle.png""]","true","[[78,9],[14,66],[2,150],[48,223],[129,249],[208,217],[248,142],[231,58],[163,6]]","true",""
"visual-search-circle","202","2.2.0","592289","78409","visual_search_trial","2257","","j","","","","","","","","","","null","red_blue_mix","10","[""images/Blue_Triangle.png"",""images/Blue_Circle.png"",""images/Blue_Circle.png"",""images/Blue_Circle.png"",""images/Red_Circle.png"",""images/Red_Circle.png""]","true","[[245,157],[213,36],[92,4],[4,92],[36,213],[157,245]]","false",""
"visual-search-circle","203","2.2.0","598202","78409","visual_search_trial","4410","","j","","","","","","","","","","null","blue_triangle","10","[""images/Blue_Triangle.png"",""images/Blue_Triangle.png"",""images/Blue_Triangle.png"",""images/Blue_Triangle.png"",""images/Blue_Triangle.png"",""images/Blue_Triangle.png"",""images/Blue_Triangle.png"",""images/Blue_Triangle.png"",""images/Blue_Triangle.png""]","true","[[249,140],[229,56],[161,5],[76,9],[13,68],[3,153],[49,224],[131,249],[210,216]]","false",""
"visual-search-circle","204","2.2.0","600768","78409","visual_search_trial","1062","","f","","","","","","","","","","null","red_circle","10","[""images/Red_Triangle.png"",""images/Red_Circle.png"",""images/Red_Circle.png""]","true","[[214,38],[4,90],[155,246]]","true",""
"visual-search-circle","205","2.2.0","602865","78409","visual_search_trial","594","","j","","","","","","","","","","null","blue_triangle","10","[""images/Blue_Triangle.png"",""images/Blue_Triangle.png"",""images/Blue_Triangle.png""]","true","[[39,33],[88,244],[246,96]]","false",""
"visual-search-circle","206","2.2.0","605198","78409","visual_search_trial","829","","f","","","","","","","","","","null","red_circle","10","[""images/Red_Triangle.png"",""images/Red_Circle.png"",""images/Red_Circle.png"",""images/Red_Circle.png"",""images/Red_Circle.png"",""images/Red_Circle.png""]","true","[[249,118],[181,13],[56,20],[0,131],[68,236],[193,229]]","true",""
"visual-search-circle","207","2.2.0","607511","78409","visual_search_trial","809","","f","","","","","","","","","","null","red_blue_mix","10","[""images/Red_Triangle.png"",""images/Blue_Triangle.png"",""images/Blue_Circle.png""]","true","[[0,127],[189,232],[185,15]]","true",""
"visual-search-circle","208","2.2.0","624584","78409","visual_search_trial","15571","","j","","","","","","","","","","null","red_circle","10","[""images/Red_Circle.png"",""images/Red_Circle.png"",""images/Red_Circle.png""]","true","[[94,246],[245,90],[35,38]]","false",""
"visual-search-circle","209","2.2.0","626607","78409","visual_search_trial","519","","f","","","","","","","","","","null","blue_triangle","10","[""images/Red_Triangle.png"",""images/Blue_Triangle.png"",""images/Blue_Triangle.png"",""images/Blue_Triangle.png"",""images/Blue_Triangle.png"",""images/Blue_Triangle.png""]","true","[[183,14],[58,18],[0,129],[66,235],[191,231],[249,120]]","true",""
"visual-search-circle","210","2.2.0","634619","78409","visual_search_trial","6506","","j","","","","","","","","","","null","red_circle","10","[""images/Red_Circle.png"",""images/Red_Circle.png"",""images/Red_Circle.png"",""images/Red_Circle.png"",""images/Red_Circle.png"",""images/Red_Circle.png"",""images/Red_Circle.png"",""images/Red_Circle.png"",""images/Red_Circle.png""]","true","[[30,207],[105,248],[189,232],[243,165],[241,80],[185,15],[101,2],[27,46],[0,127]]","false",""
"visual-search-circle","211","2.2.0","636755","78409","visual_search_trial","633","","f","","","","","","","","","","null","red_blue_mix","10","[""images/Red_Triangle.png"",""images/Blue_Circle.png"",""images/Blue_Triangle.png"",""images/Blue_Triangle.png"",""images/Red_Circle.png"",""images/Red_Circle.png""]","true","[[17,189],[127,249],[234,185],[232,60],[122,0],[15,64]]","true",""
"visual-search-circle","212","2.2.0","638807","78409","visual_search_trial","548","","j","","","","","","","","","","null","red_circle","10","[""images/Red_Circle.png"",""images/Red_Circle.png"",""images/Red_Circle.png"",""images/Red_Circle.png"",""images/Red_Circle.png"",""images/Red_Circle.png""]","true","[[207,30],[84,6],[2,101],[42,219],[165,243],[247,148]]","false",""
"visual-search-circle","213","2.2.0","640942","78409","visual_search_trial","631","","j","","","","","","","","","","null","red_blue_mix","10","[""images/Blue_Circle.png"",""images/Blue_Circle.png"",""images/Red_Circle.png"",""images/Red_Circle.png"",""images/Red_Circle.png"",""images/Blue_Circle.png"",""images/Red_Circle.png"",""images/Blue_Circle.png"",""images/Blue_Triangle.png""]","true","[[82,242],[167,242],[233,187],[248,103],[205,29],[125,0],[44,29],[1,103],[16,187]]","false",""
"visual-search-circle","214","2.2.0","643336","78409","visual_search_trial","890","","f","","","","","","","","","","null","red_circle","10","[""images/Red_Triangle.png"",""images/Red_Circle.png"",""images/Red_Circle.png"",""images/Red_Circle.png"",""images/Red_Circle.png"",""images/Red_Circle.png"",""images/Red_Circle.png"",""images/Red_Circle.png"",""images/Red_Circle.png""]","true","[[109,0],[33,39],[0,118],[25,200],[96,246],[181,236],[240,173],[244,88],[193,20]]","true",""
"visual-search-circle","215","2.2.0","646214","78409","visual_search_trial","1375","","f","","","","","","","","","","null","blue_triangle","10","[""images/Red_Triangle.png"",""images/Blue_Triangle.png"",""images/Blue_Triangle.png""]","true","[[38,214],[246,155],[90,4]]","true",""
"visual-search-circle","216","2.2.0","648759","78409","visual_search_trial","1041","","j","","","","","","","","","","null","red_blue_mix","10","[""images/Blue_Circle.png"",""images/Red_Circle.png"",""images/Blue_Circle.png""]","true","[[228,55],[12,70],[133,249]]","false",""
"visual-search-circle","217","2.2.0","650743","78409","visual_search_trial","480","","j","","","","","","","","","","null","blue_triangle","10","[""images/Blue_Triangle.png"",""images/Blue_Triangle.png"",""images/Blue_Triangle.png"",""images/Blue_Triangle.png"",""images/Blue_Triangle.png"",""images/Blue_Triangle.png""]","true","[[22,196],[135,249],[238,177],[227,53],[114,0],[11,72]]","false",""
"visual-search-circle","218","2.2.0","653620","78409","visual_search_trial","1373","","j","","","","","","","","","","null","red_blue_mix","11","[""images/Red_Circle.png"",""images/Red_Circle.png"",""images/Red_Circle.png"",""images/Blue_Triangle.png"",""images/Red_Circle.png"",""images/Blue_Circle.png"",""images/Blue_Circle.png"",""images/Blue_Circle.png"",""images/Blue_Triangle.png""]","true","[[227,53],[157,4],[72,11],[11,72],[4,157],[53,227],[135,249],[213,213],[249,135]]","false",""
"visual-search-circle","219","2.2.0","655765","78409","visual_search_trial","642","","j","","","","","","","","","","null","red_circle","11","[""images/Red_Circle.png"",""images/Red_Circle.png"",""images/Red_Circle.png""]","true","[[66,235],[249,120],[58,18]]","false",""
"visual-search-circle","220","2.2.0","657845","78409","visual_search_trial","576","","f","","","","","","","","","","null","red_blue_mix","11","[""images/Red_Triangle.png"",""images/Red_Circle.png"",""images/Blue_Triangle.png"",""images/Blue_Triangle.png"",""images/Blue_Circle.png"",""images/Blue_Circle.png""]","true","[[33,39],[5,161],[96,246],[216,210],[244,88],[153,3]]","true",""
"visual-search-circle","221","2.2.0","660251","78409","visual_search_trial","902","","f","","","","","","","","","","null","red_circle","11","[""images/Red_Triangle.png"",""images/Red_Circle.png"",""images/Red_Circle.png"",""images/Red_Circle.png"",""images/Red_Circle.png"",""images/Red_Circle.png""]","true","[[208,217],[247,99],[163,6],[41,32],[2,150],[86,243]]","true",""
"visual-search-circle","222","2.2.0","663723","78409","visual_search_trial","1969","","j","","","","","","","","","","null","blue_triangle","11","[""images/Blue_Triangle.png"",""images/Blue_Triangle.png"",""images/Blue_Triangle.png""]","true","[[198,23],[0,111],[175,239]]","false",""
"visual-search-circle","223","2.2.0","666039","78409","visual_search_trial","811","","j","","","","","","","","","","null","red_blue_mix","11","[""images/Blue_Circle.png"",""images/Blue_Triangle.png"",""images/Blue_Circle.png"",""images/Blue_Triangle.png"",""images/Red_Circle.png"",""images/Red_Circle.png""]","true","[[243,165],[219,42],[101,2],[6,84],[30,207],[148,247]]","false",""
"visual-search-circle","224","2.2.0","669440","78409","visual_search_trial","1898","","j","","","","","","","","","","null","red_circle","11","[""images/Red_Circle.png"",""images/Red_Circle.png"",""images/Red_Circle.png"",""images/Red_Circle.png"",""images/Red_Circle.png"",""images/Red_Circle.png""]","true","[[228,194],[237,70],[133,0],[21,55],[12,179],[116,249]]","false",""
"visual-search-circle","225","2.2.0","673471","78409","visual_search_trial","2528","","f","","","","","","","","","","null","red_blue_mix","11","[""images/Red_Triangle.png"",""images/Red_Circle.png"",""images/Blue_Triangle.png"",""images/Blue_Triangle.png"",""images/Blue_Triangle.png"",""images/Red_Circle.png"",""images/Blue_Circle.png"",""images/Blue_Circle.png"",""images/Red_Circle.png""]","true","[[125,0],[44,29],[1,103],[16,187],[82,242],[167,242],[233,187],[248,103],[205,29]]","true",""
"visual-search-circle","226","2.2.0","675738","78409","visual_search_trial","763","","j","","","","","","","","","","null","blue_triangle","11","[""images/Blue_Triangle.png"",""images/Blue_Triangle.png"",""images/Blue_Triangle.png"",""images/Blue_Triangle.png"",""images/Blue_Triangle.png"",""images/Blue_Triangle.png""]","true","[[86,6],[2,99],[41,217],[163,243],[247,150],[208,32]]","false",""
"visual-search-circle","227","2.2.0","677768","78409","visual_search_trial","525","","j","","","","","","","","","","null","red_circle","11","[""images/Red_Circle.png"",""images/Red_Circle.png"",""images/Red_Circle.png"",""images/Red_Circle.png"",""images/Red_Circle.png"",""images/Red_Circle.png"",""images/Red_Circle.png"",""images/Red_Circle.png"",""images/Red_Circle.png""]","true","[[116,249],[198,226],[246,155],[237,70],[175,10],[90,4],[21,55],[0,138],[38,214]]","false",""
"visual-search-circle","228","2.2.0","680951","78409","visual_search_trial","1680","","f","","","","","","","","","","null","red_blue_mix","11","[""images/Red_Triangle.png"",""images/Blue_Circle.png"",""images/Blue_Circle.png""]","true","[[80,8],[46,222],[248,144]]","true",""
"visual-search-circle","229","2.2.0","683054","78409","visual_search_trial","599","","f","","","","","","","","","","null","blue_triangle","11","[""images/Red_Triangle.png"",""images/Blue_Triangle.png"",""images/Blue_Triangle.png"",""images/Blue_Triangle.png"",""images/Blue_Triangle.png"",""images/Blue_Triangle.png"",""images/Blue_Triangle.png"",""images/Blue_Triangle.png"",""images/Blue_Triangle.png""]","true","[[179,237],[239,175],[245,90],[194,21],[111,0],[35,38],[0,116],[23,198],[94,246]]","true",""
"visual-search-circle","230","2.2.0","685201","78409","visual_search_trial","642","","f","","","","","","","","","","null","red_circle","11","[""images/Red_Triangle.png"",""images/Red_Circle.png"",""images/Red_Circle.png"",""images/Red_Circle.png"",""images/Red_Circle.png"",""images/Red_Circle.png"",""images/Red_Circle.png"",""images/Red_Circle.png"",""images/Red_Circle.png""]","true","[[9,78],[6,163],[58,231],[142,248],[217,208],[249,129],[223,48],[150,2],[66,14]]","true",""
"visual-search-circle","231","2.2.0","687343","78409","visual_search_trial","638","","f","","","","","","","","","","null","blue_triangle","11","[""images/Red_Triangle.png"",""images/Blue_Triangle.png"",""images/Blue_Triangle.png"",""images/Blue_Triangle.png"",""images/Blue_Triangle.png"",""images/Blue_Triangle.png""]","true","[[140,0],[25,49],[9,173],[109,249],[224,200],[240,76]]","true",""
"visual-search-circle","232","2.2.0","689915","78409","visual_search_trial","1068","","j","","","","","","","","","","null","red_blue_mix","11","[""images/Blue_Circle.png"",""images/Blue_Circle.png"",""images/Blue_Triangle.png""]","true","[[161,5],[3,153],[210,216]]","false",""
"visual-search-circle","233","2.2.0","692026","78409","visual_search_trial","606","","j","","","","","","","","","","null","blue_triangle","11","[""images/Blue_Triangle.png"",""images/Blue_Triangle.png"",""images/Blue_Triangle.png"",""images/Blue_Triangle.png"",""images/Blue_Triangle.png"",""images/Blue_Triangle.png"",""images/Blue_Triangle.png"",""images/Blue_Triangle.png"",""images/Blue_Triangle.png""]","true","[[207,30],[127,0],[46,27],[2,101],[15,185],[80,241],[165,243],[232,189],[248,105]]","false",""
"visual-search-circle","234","2.2.0","694303","78409","visual_search_trial","773","","f","","","","","","","","","","null","red_circle","11","[""images/Red_Triangle.png"",""images/Red_Circle.png"",""images/Red_Circle.png""]","true","[[116,0],[21,194],[237,179]]","true",""
