"trial_type","trial_index","plugin_version","time_elapsed","sona_id","phase","rt","stimulus","response","consented","required_key","view_history","question_order","success","timeout","failed_images","failed_audio","failed_video","set_size","distractor_type","block","stimuli_list","correct","locations","target_present","break_key"
"pavlovia","0","null","1058","79221","","","","","","","","","","","","","","","","","","","","",""
"html-button-response","1","2.1.0","12469","79221","informed_consent","11407","
    <div style=""max-width: 900px; margin: 0 auto; padding: 20px; text-align: left; line-height: 1.6;"">
      <h1 style=""text-align: center; color: #333; font-size: 24px; margin-bottom: 10px; font-weight: bold;"">
        INFORMED CONSENT INFORMATION
      </h1>
      <h2 style=""text-align: center; color: #333; font-size: 22px; margin-bottom: 20px; font-weight: bold;"">
        FOR RESEARCH PARTICIPATION
      </h2>
      
      <p style=""margin-bottom: 10px;""><strong>Study Title:</strong> The Effects of Mindfulness and Attention on Life Satisfaction and Memory</p>
      <p style=""margin-bottom: 10px;""><strong>Principal Investigator:</strong> Ella Bremmer</p>
      <p style=""margin-bottom: 10px;""><strong>Co-Principal Investigator:</strong> Dr. Gregory Cox</p>
      <p style=""margin-bottom: 20px;""><strong>IRB Study Number:</strong> STUDY00006288</p>

      <p style=""margin-bottom: 15px;"">I am a student at the University at Albany, in the Department of Psychology. I am planning to conduct a research study, which I invite you to take part in.</p>
      
      <p style=""margin-bottom: 25px;"">This form has important information about the reasons for doing this study, what we will ask you to do, and the way we would like to use the information we collect about you.</p>

      <h3 style=""color: #333; font-size: 18px; margin-top: 25px; margin-bottom: 10px; font-weight: bold;"">
        Why are you doing this study?
      </h3>
      <p style=""margin-bottom: 15px;"">You are being asked to participate in a research study that aims to understand if there is a relationship between mindfulness, the ability to pay attention, and life satisfaction.</p>
      
      <p style=""margin-bottom: 25px;"">The purpose of this study is to investigate if having better control over one's attention influences overall life satisfaction. Your participation will help us better understand if mindfulness and attention do have a significant effect on life satisfaction (i.e., how people feel about their lives overall). Then you will be asked to perform a conjunction visual search task to test your capacity to direct your attention over a sustained period.</p>

      <h3 style=""color: #333; font-size: 18px; margin-top: 25px; margin-bottom: 10px; font-weight: bold;"">
        Why am I eligible to participate in this study?
      </h3>
      <p style=""margin-bottom: 25px;"">You are eligible to participate because you are a student at UAlbany, are at least 18 years old, and are proficient in English.</p>

      <h3 style=""color: #333; font-size: 18px; margin-top: 25px; margin-bottom: 10px; font-weight: bold;"">
        What will I do if I choose to be in this study?
      </h3>
      <p style=""margin-bottom: 10px;"">If you choose to take part in our study, you will do the following:</p>
      <p style=""margin-bottom: 8px; margin-left: 20px;"">1. Read and agree to the informed consent.</p>
      <p style=""margin-bottom: 8px; margin-left: 40px;"">a. If you choose not to agree to the informed consent, you will be taken back to the SONA site.</p>
      <p style=""margin-bottom: 8px; margin-left: 20px;"">2. Complete a demographic questionnaire that asks about your age, English proficiency, gender, and race.</p>
      <p style=""margin-bottom: 8px; margin-left: 20px;"">3. Read instructions for the visual search task, which asks you to indicate if a target (a red triangle) is present among various other colored shapes. You should press the ""F"" key if a red triangle is present, or the ""J"" key if the target is absent.</p>
      <p style=""margin-bottom: 8px; margin-left: 20px;"">4. You will be asked to respond to 270 visual search trials, whith the opportunity to take short breaks as you go</p>
      <p style=""margin-bottom: 8px; margin-left: 20px;"">5. You will complete the Mindfulness Attention Awareness Scale (MAAS), the Satisfaction With Life Scale (SWLS), and the Big Five Inventory.</p>
      <p style=""margin-bottom: 25px; margin-left: 20px;"">6.	After all questionnaires are completed, participants will be thanked for their time and will be provided the study debriefing. Following the debriefing, you will be sent back to the SONA research site.</p>

      <h3 style=""color: #333; font-size: 18px; margin-top: 25px; margin-bottom: 10px; font-weight: bold;"">
        For how long will I participate?
      </h3>
      <p style=""margin-bottom: 25px;"">This study is a single online session that you can complete on a computer. The study can be completed in less than 30 minutes but could require as long as 45 minutes to complete.</p>

      <h3 style=""color: #333; font-size: 18px; margin-top: 25px; margin-bottom: 10px; font-weight: bold;"">
        Where will I need to go to participate?
      </h3>
      <p style=""margin-bottom: 25px;"">All study procedures will take place online and can be completed wherever you have internet connection.</p>

      <h3 style=""color: #333; font-size: 18px; margin-top: 25px; margin-bottom: 10px; font-weight: bold;"">
        Are there any costs I should be aware of?
      </h3>
      <p style=""margin-bottom: 25px;"">Participation is not expected to incur cost to participants. Free internet access is available anywhere on campus and in the university library.</p>

      <h3 style=""color: #333; font-size: 18px; margin-top: 25px; margin-bottom: 10px; font-weight: bold;"">
        What are the possible risks or discomforts?
      </h3>
      <p style=""margin-bottom: 15px;"">As with all research, there is a chance that confidentiality of the information we collect from you could be breached – we will take steps to minimize this risk, as discussed in more detail below.</p>
      
      <p style=""margin-bottom: 25px;"">The risks associated with participating in this study are minimal; however, you may experience mild discomfort when reflecting on your mindfulness or life satisfaction when answering questionnaires in the study. To help minimize this, you can withdraw from the study at any time without any consequences. The study will take place online, and you will have the opportunity to take breaks while completing the survey to reduce the risk of eye strain associated with the use of electronic devices.</p>

      <h3 style=""color: #333; font-size: 18px; margin-top: 25px; margin-bottom: 10px; font-weight: bold;"">
        What are the possible benefits for me or others?
      </h3>
      <p style=""margin-bottom: 25px;"">While there are no direct personal benefits to participants of this study, you may find value in reflecting on your mindfulness, attention, and its impact on life satisfaction by completing this survey. The data you contribute may help advance society's understanding of how mindfulness and attention relate to overall well-being, potentially informing future programs or interventions aimed at improving student mental health, attention, and life satisfaction.</p>

      <h3 style=""color: #333; font-size: 18px; margin-top: 25px; margin-bottom: 10px; font-weight: bold;"">
        Will I receive compensation for my participation?
      </h3>
      <p style=""margin-bottom: 25px;"">SONA partial class credit will be awarded via the Psychology Department SONA research pool after you complete the survey in its entirety. Participants who withdraw before completing the survey will not receive partial credit. You will not receive monetary compensation for your participation in this study.</p>

      <h3 style=""color: #333; font-size: 18px; margin-top: 25px; margin-bottom: 10px; font-weight: bold;"">
        How will you protect the information you collect about me, and how will that information be shared?
      </h3>
      <p style=""margin-bottom: 15px;"">Results of this study may be used in publications and presentations. Your data will be handled as confidentially as possible, and no identifiable information will be collected to link your data back to you. If results of this study are published or presented, only de-identified summaries of data will be used.</p>
      
      <p style=""margin-bottom: 25px;"">To minimize the risks to confidentiality, all data will be collected anonymously via Pavlovia.org which uses encryption to protect information (https://pavlovia.org/docs/home/ethics). Only the student researcher (Ella Bremmer), mentor (Pierce Johnson), and faculty advisor (Gregory Cox) will have password-protected access to the data. Data will be stored on secure, university approved computers.</p>

      <h3 style=""color: #333; font-size: 18px; margin-top: 25px; margin-bottom: 10px; font-weight: bold;"">
        Will my data be used in future research?
      </h3>
      <p style=""margin-bottom: 25px;"">No personal identifiers will be collected in the data you provide us. Data will not be used in future research, and will be deleted after the required retention period.</p>

      <h3 style=""color: #333; font-size: 18px; margin-top: 25px; margin-bottom: 10px; font-weight: bold;"">
        What are my rights as a research participant?
      </h3>
      <p style=""margin-bottom: 15px;"">Participation in this study is voluntary. You do not have to answer any question you do not want to answer. If at any time and for any reason, you would prefer not to participate in this study, please feel free not to. If at any time you would like to stop participating, you are welcome to stop. You can take a break or stop altogether. You may withdraw from this study at any time, and you will not be penalized in any way for deciding to stop participation.</p>
      
      <p style=""margin-bottom: 25px;"">If you decide to withdraw from this study, any information collected from you before withdrawing will not be used, and your data will be deleted.</p>

      <h3 style=""color: #333; font-size: 18px; margin-top: 25px; margin-bottom: 10px; font-weight: bold;"">
        What if I am a University at Albany student or employee?
      </h3>
      <p style=""margin-bottom: 25px;"">You may choose not to participate or to stop participating in this research at any time. This will not affect your class standing, grades, employment, or any other aspects of your relationship with the University at Albany.</p>

      <h3 style=""color: #333; font-size: 18px; margin-top: 25px; margin-bottom: 10px; font-weight: bold;"">
        Who can I contact if I have questions or concerns about this research study?
      </h3>
      <p style=""margin-bottom: 15px;"">If you have questions, please feel free to stop and email the investigator, Ella Bremmer (ebremmer@albany.edu) or advisors, Pierce Johnson (pjohnson4@albany.edu) and Dr. Greg Cox (gecox@albany.edu). If you have questions later, you may also contact the researchers.</p>
      
      <p style=""margin-bottom: 10px;"">If you have any questions about your rights as a participant in this research, you can contact the following office at the University at Albany:</p>
      
      <p style=""margin-bottom: 5px; margin-left: 20px;"">Institutional Review Board</p>
      <p style=""margin-bottom: 5px; margin-left: 20px;"">University at Albany</p>
      <p style=""margin-bottom: 5px; margin-left: 20px;"">Office of Regulatory and Research Compliance</p>
      <p style=""margin-bottom: 5px; margin-left: 20px;"">1400 Washington Ave, Biology 227</p>
      <p style=""margin-bottom: 5px; margin-left: 20px;"">Albany, NY 12222</p>
      <p style=""margin-bottom: 5px; margin-left: 20px;"">Phone: 1-866-857-5459</p>
      <p style=""margin-bottom: 25px; margin-left: 20px;"">Email: rco@albany.edu</p>

      <h3 style=""color: #333; font-size: 18px; margin-top: 30px; margin-bottom: 10px; font-weight: bold;"">
        Consent
      </h3>
      <p style=""margin-bottom: 20px;"">I have read this form and the research study has been explained to me. I have been given the opportunity to ask questions and my questions have been answered. If I have additional questions, I have been told whom to contact. I agree to participate in the research study described above. I understand that I have the opportunity to download and save a copy of this form for my records.</p>

      <div style=""background-color: #f9f9f9; border: 2px solid #4CAF50; border-radius: 5px; padding: 20px; margin-top: 20px; margin-bottom: 20px;"">
        <p style=""margin-bottom: 15px; font-weight: bold;"">To save a copy of this consent form for your records, press Ctrl+P (Windows/Linux) or Cmd+P (Mac) and select ""Save as PDF"".</p>
        <p style=""margin-bottom: 0; font-weight: bold;"">By clicking ""I Agree"" below, I confirm that I agree to participate in the research study described above, and that doing so serves as my written signature consenting to take part in the study.</p>
      </div>
    </div>
  ","0","true","","","","","","","","","","","","","","","",""
"instructions","3","2.1.0","16963","79221","intro_instructions","4493","","","","j","[{""page_index"":0,""viewing_time"":4493}]","","","","","","","","","","","","","",""
"html-keyboard-response","4","2.1.0","18966","79221","intermediate_slide_demo","null","<p style=""font-size:4vw"">Demographic Questionnaire</p>","null","","","","","","","","","","","","","","","","",""
"survey-multi-choice","5","2.1.0","25885","79221","demographics_english","6916","","{""english"":""Strongly agree""}","","","","[0]","","","","","","","","","","","","",""
"survey-text","7","2.1.0","30135","79221","demographics_age","4247","","{""age"":""18""}","","","","","","","","","","","","","","","","",""
"survey-multi-select","9","2.1.0","33134","79221","demographics_gender","2995","","{""gender"":[""Woman""]}","","","","[0]","","","","","","","","","","","","",""
"survey-multi-choice","11","2.1.0","35934","79221","demographics_race","2798","","{""race"":""Multiracial""}","","","","[0]","","","","","","","","","","","","",""
"html-keyboard-response","12","2.1.0","37937","79221","intermediate_slide_VS","null","<p style=""font-size:4vw"">Visual Search Task</p>","null","","","","","","","","","","","","","","","","",""
"preload","13","2.1.0","38041","79221","image_preload","","","","","","","","true","false","[]","[]","[]","","","","","","","",""
"html-button-response","14","2.1.0","50317","79221","vs_instructions","12274","<p>On the following screens, you will see a series of colored shapes (triangles, squares, and circles) appear.</p>
    <p>Please Press 'F' if there <strong>is</strong> a red triangle among the shapes you see.</p>
    <p>Press 'J' if there is <strong>not</strong> a red triangle among the shapes you see.</p>","0","","","","","","","","","","","","","","","","",""
"visual-search-circle","15","2.2.0","55487","79221","visual_search_trial","3664","","j","","","","","","","","","","null","blue_triangle","0","[""images/Blue_Triangle.png"",""images/Blue_Triangle.png"",""images/Blue_Triangle.png"",""images/Blue_Triangle.png"",""images/Blue_Triangle.png"",""images/Blue_Triangle.png"",""images/Blue_Triangle.png"",""images/Blue_Triangle.png"",""images/Blue_Triangle.png""]","true","[[205,29],[125,0],[44,29],[1,103],[16,187],[82,242],[167,242],[233,187],[248,103]]","false",""
"visual-search-circle","16","2.2.0","58269","79221","visual_search_trial","1278","","f","","","","","","","","","","null","red_blue_mix","0","[""images/Red_Triangle.png"",""images/Blue_Circle.png"",""images/Red_Circle.png""]","true","[[11,177],[227,196],[135,0]]","true",""
"visual-search-circle","17","2.2.0","61850","79221","visual_search_trial","2078","","f","","","","","","","","","","null","blue_triangle","0","[""images/Red_Triangle.png"",""images/Blue_Triangle.png"",""images/Blue_Triangle.png""]","true","[[177,11],[0,135],[196,227]]","true",""
"visual-search-circle","18","2.2.0","64828","79221","visual_search_trial","1472","","j","","","","","","","","","","null","red_circle","0","[""images/Red_Circle.png"",""images/Red_Circle.png"",""images/Red_Circle.png"",""images/Red_Circle.png"",""images/Red_Circle.png"",""images/Red_Circle.png""]","true","[[248,105],[169,8],[46,27],[1,144],[80,241],[203,222]]","false",""
"visual-search-circle","19","2.2.0","67810","79221","visual_search_trial","1477","","f","","","","","","","","","","null","blue_triangle","0","[""images/Red_Triangle.png"",""images/Blue_Triangle.png"",""images/Blue_Triangle.png"",""images/Blue_Triangle.png"",""images/Blue_Triangle.png"",""images/Blue_Triangle.png"",""images/Blue_Triangle.png"",""images/Blue_Triangle.png"",""images/Blue_Triangle.png""]","true","[[194,21],[111,0],[35,38],[0,116],[23,198],[94,246],[179,237],[239,175],[245,90]]","true",""
"visual-search-circle","20","2.2.0","70425","79221","visual_search_trial","1111","","f","","","","","","","","","","null","red_circle","0","[""images/Red_Triangle.png"",""images/Red_Circle.png"",""images/Red_Circle.png""]","true","[[213,213],[157,4],[4,157]]","true",""
"visual-search-circle","21","2.2.0","73109","79221","visual_search_trial","1180","","j","","","","","","","","","","null","red_blue_mix","0","[""images/Red_Circle.png"",""images/Red_Circle.png"",""images/Blue_Circle.png""]","true","[[120,0],[18,191],[235,183]]","false",""
"visual-search-circle","22","2.2.0","75752","79221","visual_search_trial","1139","","j","","","","","","","","","","null","red_circle","0","[""images/Red_Circle.png"",""images/Red_Circle.png"",""images/Red_Circle.png""]","true","[[16,62],[125,250],[233,62]]","false",""
"visual-search-circle","23","2.2.0","78685","79221","visual_search_trial","1430","","j","","","","","","","","","","null","blue_triangle","0","[""images/Blue_Triangle.png"",""images/Blue_Triangle.png"",""images/Blue_Triangle.png""]","true","[[219,207],[148,2],[6,165]]","false",""
"visual-search-circle","24","2.2.0","81688","79221","visual_search_trial","1498","","f","","","","","","","","","","null","red_circle","0","[""images/Red_Triangle.png"",""images/Red_Circle.png"",""images/Red_Circle.png"",""images/Red_Circle.png"",""images/Red_Circle.png"",""images/Red_Circle.png""]","true","[[243,86],[150,2],[32,41],[6,163],[99,247],[217,208]]","true",""
"visual-search-circle","25","2.2.0","84041","79221","visual_search_trial","849","","f","","","","","","","","","","null","blue_triangle","0","[""images/Red_Triangle.png"",""images/Blue_Triangle.png"",""images/Blue_Triangle.png"",""images/Blue_Triangle.png"",""images/Blue_Triangle.png"",""images/Blue_Triangle.png""]","true","[[84,6],[2,101],[42,219],[165,243],[247,148],[207,30]]","true",""
"visual-search-circle","26","2.2.0","86928","79221","visual_search_trial","1382","","j","","","","","","","","","","null","red_blue_mix","0","[""images/Blue_Circle.png"",""images/Blue_Circle.png"",""images/Blue_Triangle.png"",""images/Blue_Triangle.png"",""images/Red_Circle.png"",""images/Red_Circle.png"",""images/Red_Circle.png"",""images/Blue_Triangle.png"",""images/Red_Circle.png""]","true","[[235,66],[171,9],[86,6],[18,58],[1,142],[41,217],[120,249],[201,223],[247,150]]","false",""
"visual-search-circle","27","2.2.0","89509","79221","visual_search_trial","1076","","j","","","","","","","","","","null","blue_triangle","0","[""images/Blue_Triangle.png"",""images/Blue_Triangle.png"",""images/Blue_Triangle.png"",""images/Blue_Triangle.png"",""images/Blue_Triangle.png"",""images/Blue_Triangle.png""]","true","[[246,96],[161,5],[39,33],[3,153],[88,244],[210,216]]","false",""
"visual-search-circle","28","2.2.0","92597","79221","visual_search_trial","1583","","j","","","","","","","","","","null","red_blue_mix","0","[""images/Blue_Triangle.png"",""images/Blue_Triangle.png"",""images/Blue_Triangle.png"",""images/Red_Circle.png"",""images/Red_Circle.png"",""images/Red_Circle.png""]","true","[[236,68],[131,0],[20,56],[13,181],[118,249],[229,193]]","false",""
"visual-search-circle","29","2.2.0","95206","79221","visual_search_trial","1104","","f","","","","","","","","","","null","red_circle","0","[""images/Red_Triangle.png"",""images/Red_Circle.png"",""images/Red_Circle.png"",""images/Red_Circle.png"",""images/Red_Circle.png"",""images/Red_Circle.png"",""images/Red_Circle.png"",""images/Red_Circle.png"",""images/Red_Circle.png""]","true","[[131,0],[49,25],[3,96],[13,181],[76,240],[161,244],[229,193],[249,109],[210,33]]","true",""
"visual-search-circle","30","2.2.0","98724","79221","visual_search_trial","2013","","f","","","","","","","","","","null","red_blue_mix","0","[""images/Red_Triangle.png"",""images/Blue_Circle.png"",""images/Red_Circle.png"",""images/Red_Circle.png"",""images/Red_Circle.png"",""images/Red_Circle.png"",""images/Red_Circle.png"",""images/Blue_Triangle.png"",""images/Blue_Triangle.png""]","true","[[21,55],[0,138],[38,214],[116,249],[198,226],[246,155],[237,70],[175,10],[90,4]]","true",""
"visual-search-circle","31","2.2.0","100720","79221","visual_search_trial","491","","j","","","","","","","","","","null","red_circle","0","[""images/Red_Circle.png"",""images/Red_Circle.png"",""images/Red_Circle.png"",""images/Red_Circle.png"",""images/Red_Circle.png"",""images/Red_Circle.png"",""images/Red_Circle.png"",""images/Red_Circle.png"",""images/Red_Circle.png""]","true","[[88,5],[20,56],[0,140],[39,216],[118,249],[200,224],[246,153],[236,68],[173,9]]","false",""
"visual-search-circle","32","2.2.0","102869","79221","visual_search_trial","644","","f","","","","","","","","","","null","red_blue_mix","0","[""images/Red_Triangle.png"",""images/Red_Circle.png"",""images/Blue_Triangle.png"",""images/Blue_Triangle.png"",""images/Blue_Circle.png"",""images/Blue_Circle.png""]","true","[[183,235],[249,129],[191,18],[66,14],[0,120],[58,231]]","true",""
"visual-search-circle","33","2.2.0","105032","79221","visual_search_trial","660","","f","","","","","","","","","","null","red_blue_mix","1","[""images/Red_Triangle.png"",""images/Red_Circle.png"",""images/Red_Circle.png""]","true","[[205,29],[1,103],[167,242]]","true",""
"visual-search-circle","34","2.2.0","107084","79221","visual_search_trial","547","","j","","","","","","","","","","null","red_circle","1","[""images/Red_Circle.png"",""images/Red_Circle.png"",""images/Red_Circle.png"",""images/Red_Circle.png"",""images/Red_Circle.png"",""images/Red_Circle.png"",""images/Red_Circle.png"",""images/Red_Circle.png"",""images/Red_Circle.png""]","true","[[155,3],[70,12],[10,74],[4,159],[55,228],[138,249],[214,211],[249,133],[226,51]]","false",""
"visual-search-circle","35","2.2.0","109033","79221","visual_search_trial","445","","f","","","","","","","","","","null","red_blue_mix","1","[""images/Red_Triangle.png"",""images/Blue_Triangle.png"",""images/Blue_Circle.png"",""images/Blue_Circle.png"",""images/Blue_Circle.png"",""images/Red_Circle.png""]","true","[[56,20],[0,131],[68,236],[193,229],[249,118],[181,13]]","true",""
"visual-search-circle","36","2.2.0","111099","79221","visual_search_trial","562","","f","","","","","","","","","","null","blue_triangle","1","[""images/Red_Triangle.png"",""images/Blue_Triangle.png"",""images/Blue_Triangle.png"",""images/Blue_Triangle.png"",""images/Blue_Triangle.png"",""images/Blue_Triangle.png""]","true","[[173,9],[49,25],[0,140],[76,240],[200,224],[249,109]]","true",""
"visual-search-circle","37","2.2.0","113171","79221","visual_search_trial","569","","f","","","","","","","","","","null","red_circle","1","[""images/Red_Triangle.png"",""images/Red_Circle.png"",""images/Red_Circle.png"",""images/Red_Circle.png"",""images/Red_Circle.png"",""images/Red_Circle.png""]","true","[[9,76],[25,200],[140,249],[240,173],[224,49],[109,0]]","true",""
"visual-search-circle","38","2.2.0","115449","79221","visual_search_trial","774","","j","","","","","","","","","","null","blue_triangle","1","[""images/Blue_Triangle.png"",""images/Blue_Triangle.png"",""images/Blue_Triangle.png"",""images/Blue_Triangle.png"",""images/Blue_Triangle.png"",""images/Blue_Triangle.png"",""images/Blue_Triangle.png"",""images/Blue_Triangle.png"",""images/Blue_Triangle.png""]","true","[[3,155],[51,226],[133,249],[211,214],[249,138],[228,55],[159,4],[74,10],[12,70]]","false",""
"visual-search-circle","39","2.2.0","117482","79221","visual_search_trial","530","","f","","","","","","","","","","null","red_circle","1","[""images/Red_Triangle.png"",""images/Red_Circle.png"",""images/Red_Circle.png""]","true","[[86,243],[247,99],[41,32]]","true",""
"visual-search-circle","40","2.2.0","119732","79221","visual_search_trial","746","","j","","","","","","","","","","null","blue_triangle","1","[""images/Blue_Triangle.png"",""images/Blue_Triangle.png"",""images/Blue_Triangle.png""]","true","[[196,227],[177,11],[0,135]]","false",""
"visual-search-circle","41","2.2.0","122866","79221","visual_search_trial","1629","","f","","","","","","","","","","null","red_circle","1","[""images/Red_Triangle.png"",""images/Red_Circle.png"",""images/Red_Circle.png"",""images/Red_Circle.png"",""images/Red_Circle.png"",""images/Red_Circle.png"",""images/Red_Circle.png"",""images/Red_Circle.png"",""images/Red_Circle.png""]","true","[[165,6],[80,8],[15,64],[2,148],[46,222],[127,249],[207,219],[248,144],[232,60]]","true",""
"visual-search-circle","42","2.2.0","125999","79221","visual_search_trial","1628","","j","","","","","","","","","","null","red_blue_mix","1","[""images/Blue_Circle.png"",""images/Blue_Triangle.png"",""images/Blue_Triangle.png"",""images/Red_Circle.png"",""images/Red_Circle.png"",""images/Red_Circle.png"",""images/Blue_Circle.png"",""images/Blue_Circle.png"",""images/Red_Circle.png""]","true","[[0,114],[22,196],[92,245],[177,238],[238,177],[245,92],[196,22],[114,0],[36,36]]","false",""
"visual-search-circle","43","2.2.0","128100","79221","visual_search_trial","597","","j","","","","","","","","","","null","blue_triangle","1","[""images/Blue_Triangle.png"",""images/Blue_Triangle.png"",""images/Blue_Triangle.png"",""images/Blue_Triangle.png"",""images/Blue_Triangle.png"",""images/Blue_Triangle.png""]","true","[[0,116],[55,228],[179,237],[249,133],[194,21],[70,12]]","false",""
"visual-search-circle","44","2.2.0","130348","79221","visual_search_trial","744","","j","","","","","","","","","","null","red_circle","1","[""images/Red_Circle.png"",""images/Red_Circle.png"",""images/Red_Circle.png""]","true","[[241,80],[27,46],[105,248]]","false",""
"visual-search-circle","45","2.2.0","132399","79221","visual_search_trial","547","","j","","","","","","","","","","null","red_blue_mix","1","[""images/Red_Circle.png"",""images/Red_Circle.png"",""images/Blue_Circle.png""]","true","[[211,35],[3,94],[159,245]]","false",""
"visual-search-circle","46","2.2.0","134449","79221","visual_search_trial","547","","j","","","","","","","","","","null","red_circle","1","[""images/Red_Circle.png"",""images/Red_Circle.png"",""images/Red_Circle.png"",""images/Red_Circle.png"",""images/Red_Circle.png"",""images/Red_Circle.png""]","true","[[32,41],[6,163],[99,247],[217,208],[243,86],[150,2]]","false",""
"visual-search-circle","47","2.2.0","136642","79221","visual_search_trial","689","","f","","","","","","","","","","null","red_blue_mix","1","[""images/Red_Triangle.png"",""images/Blue_Circle.png"",""images/Red_Circle.png"",""images/Blue_Circle.png"",""images/Blue_Circle.png"",""images/Red_Circle.png"",""images/Blue_Circle.png"",""images/Blue_Circle.png"",""images/Blue_Triangle.png""]","true","[[208,217],[248,142],[231,58],[163,6],[78,9],[14,66],[2,150],[48,223],[129,249]]","true",""
"visual-search-circle","48","2.2.0","138687","79221","visual_search_trial","539","","f","","","","","","","","","","null","blue_triangle","1","[""images/Red_Triangle.png"",""images/Blue_Triangle.png"",""images/Blue_Triangle.png"",""images/Blue_Triangle.png"",""images/Blue_Triangle.png"",""images/Blue_Triangle.png"",""images/Blue_Triangle.png"",""images/Blue_Triangle.png"",""images/Blue_Triangle.png""]","true","[[114,0],[36,36],[0,114],[22,196],[92,245],[177,238],[238,177],[245,92],[196,22]]","true",""
"visual-search-circle","49","2.2.0","141933","79221","visual_search_trial","1742","","j","","","","","","","","","","null","red_blue_mix","1","[""images/Red_Circle.png"",""images/Blue_Triangle.png"",""images/Blue_Circle.png"",""images/Blue_Circle.png"",""images/Blue_Triangle.png"",""images/Red_Circle.png""]","true","[[122,249],[232,189],[234,64],[127,0],[17,60],[15,185]]","false",""
"visual-search-circle","50","2.2.0","145682","79221","visual_search_trial","2245","","f","","","","","","","","","","null","blue_triangle","1","[""images/Red_Triangle.png"",""images/Blue_Triangle.png"",""images/Blue_Triangle.png""]","true","[[133,249],[228,55],[12,70]]","true",""
"html-keyboard-response","51","2.1.0","149182","79221","break","3499","<p>Great job so far! Please rest for a few seconds before continuing.</p>
                 <p>Press the <strong>Z</strong> key on your keyboard to continue.</p>","z","","","","","","","","","","","","","","","","","Z"
"visual-search-circle","52","2.2.0","154316","79221","visual_search_trial","3629","","j","","","","","","","","","","null","blue_triangle","2","[""images/Blue_Triangle.png"",""images/Blue_Triangle.png"",""images/Blue_Triangle.png"",""images/Blue_Triangle.png"",""images/Blue_Triangle.png"",""images/Blue_Triangle.png""]","true","[[207,219],[247,101],[165,6],[42,30],[2,148],[84,243]]","false",""
"visual-search-circle","53","2.2.0","157368","79221","visual_search_trial","1549","","j","","","","","","","","","","null","red_blue_mix","2","[""images/Red_Circle.png"",""images/Blue_Triangle.png"",""images/Blue_Circle.png"",""images/Blue_Circle.png"",""images/Blue_Circle.png"",""images/Red_Circle.png""]","true","[[211,214],[246,94],[159,4],[38,35],[3,155],[90,245]]","false",""
"visual-search-circle","54","2.2.0","159483","79221","visual_search_trial","610","","f","","","","","","","","","","null","blue_triangle","2","[""images/Red_Triangle.png"",""images/Blue_Triangle.png"",""images/Blue_Triangle.png"",""images/Blue_Triangle.png"",""images/Blue_Triangle.png"",""images/Blue_Triangle.png"",""images/Blue_Triangle.png"",""images/Blue_Triangle.png"",""images/Blue_Triangle.png""]","true","[[14,183],[78,240],[163,243],[231,191],[248,107],[208,32],[129,0],[48,26],[2,99]]","true",""
"visual-search-circle","55","2.2.0","162417","79221","visual_search_trial","1428","","j","","","","","","","","","","null","red_blue_mix","2","[""images/Blue_Circle.png"",""images/Blue_Circle.png"",""images/Blue_Circle.png"",""images/Blue_Circle.png"",""images/Blue_Circle.png"",""images/Blue_Triangle.png"",""images/Red_Circle.png"",""images/Red_Circle.png"",""images/Blue_Circle.png""]","true","[[11,177],[72,238],[157,245],[227,196],[249,114],[213,36],[135,0],[53,22],[4,92]]","false",""
"visual-search-circle","56","2.2.0","164499","79221","visual_search_trial","576","","f","","","","","","","","","","null","red_circle","2","[""images/Red_Triangle.png"",""images/Red_Circle.png"",""images/Red_Circle.png"",""images/Red_Circle.png"",""images/Red_Circle.png"",""images/Red_Circle.png"",""images/Red_Circle.png"",""images/Red_Circle.png"",""images/Red_Circle.png""]","true","[[4,92],[11,177],[72,238],[157,245],[227,196],[249,114],[213,36],[135,0],[53,22]]","true",""
"visual-search-circle","57","2.2.0","166976","79221","visual_search_trial","973","","f","","","","","","","","","","null","red_blue_mix","2","[""images/Red_Triangle.png"",""images/Blue_Circle.png"",""images/Blue_Triangle.png"",""images/Red_Circle.png"",""images/Blue_Circle.png"",""images/Blue_Circle.png""]","true","[[234,64],[127,0],[17,60],[15,185],[122,249],[232,189]]","true",""
"visual-search-circle","58","2.2.0","168956","79221","visual_search_trial","476","","j","","","","","","","","","","null","red_circle","2","[""images/Red_Circle.png"",""images/Red_Circle.png"",""images/Red_Circle.png""]","true","[[210,216],[161,5],[3,153]]","false",""
"visual-search-circle","59","2.2.0","171015","79221","visual_search_trial","556","","f","","","","","","","","","","null","blue_triangle","2","[""images/Red_Triangle.png"",""images/Blue_Triangle.png"",""images/Blue_Triangle.png""]","true","[[9,78],[142,248],[223,48]]","true",""
"visual-search-circle","60","2.2.0","173198","79221","visual_search_trial","679","","f","","","","","","","","","","null","red_circle","2","[""images/Red_Triangle.png"",""images/Red_Circle.png"",""images/Red_Circle.png"",""images/Red_Circle.png"",""images/Red_Circle.png"",""images/Red_Circle.png""]","true","[[232,60],[122,0],[15,64],[17,189],[127,249],[234,185]]","true",""
"visual-search-circle","61","2.2.0","175243","79221","visual_search_trial","540","","j","","","","","","","","","","null","blue_triangle","2","[""images/Blue_Triangle.png"",""images/Blue_Triangle.png"",""images/Blue_Triangle.png"",""images/Blue_Triangle.png"",""images/Blue_Triangle.png"",""images/Blue_Triangle.png"",""images/Blue_Triangle.png"",""images/Blue_Triangle.png"",""images/Blue_Triangle.png""]","true","[[216,210],[249,131],[224,49],[153,3],[68,13],[9,76],[5,161],[56,229],[140,249]]","false",""
"visual-search-circle","62","2.2.0","177432","79221","visual_search_trial","685","","j","","","","","","","","","","null","red_circle","2","[""images/Red_Circle.png"",""images/Red_Circle.png"",""images/Red_Circle.png"",""images/Red_Circle.png"",""images/Red_Circle.png"",""images/Red_Circle.png"",""images/Red_Circle.png"",""images/Red_Circle.png"",""images/Red_Circle.png""]","true","[[226,51],[155,3],[70,12],[10,74],[4,159],[55,228],[138,249],[214,211],[249,133]]","false",""
"visual-search-circle","63","2.2.0","179503","79221","visual_search_trial","567","","f","","","","","","","","","","null","blue_triangle","2","[""images/Red_Triangle.png"",""images/Blue_Triangle.png"",""images/Blue_Triangle.png"",""images/Blue_Triangle.png"",""images/Blue_Triangle.png"",""images/Blue_Triangle.png""]","true","[[17,60],[15,185],[122,249],[232,189],[234,64],[127,0]]","true",""
"visual-search-circle","64","2.2.0","181680","79221","visual_search_trial","672","","f","","","","","","","","","","null","red_blue_mix","2","[""images/Red_Triangle.png"",""images/Red_Circle.png"",""images/Red_Circle.png"",""images/Blue_Triangle.png"",""images/Red_Circle.png"",""images/Blue_Circle.png"",""images/Red_Circle.png"",""images/Blue_Triangle.png"",""images/Blue_Triangle.png""]","true","[[249,109],[210,33],[131,0],[49,25],[3,96],[13,181],[76,240],[161,244],[229,193]]","true",""
"visual-search-circle","65","2.2.0","183649","79221","visual_search_trial","466","","f","","","","","","","","","","null","red_circle","2","[""images/Red_Triangle.png"",""images/Red_Circle.png"",""images/Red_Circle.png""]","true","[[8,80],[144,248],[222,46]]","true",""
"visual-search-circle","66","2.2.0","185587","79221","visual_search_trial","434","","f","","","","","","","","","","null","red_blue_mix","2","[""images/Red_Triangle.png"",""images/Blue_Triangle.png"",""images/Red_Circle.png""]","true","[[32,41],[99,247],[243,86]]","true",""
"visual-search-circle","67","2.2.0","187732","79221","visual_search_trial","640","","j","","","","","","","","","","null","red_circle","2","[""images/Red_Circle.png"",""images/Red_Circle.png"",""images/Red_Circle.png"",""images/Red_Circle.png"",""images/Red_Circle.png"",""images/Red_Circle.png""]","true","[[173,9],[49,25],[0,140],[76,240],[200,224],[249,109]]","false",""
"visual-search-circle","68","2.2.0","190040","79221","visual_search_trial","805","","j","","","","","","","","","","null","red_blue_mix","2","[""images/Blue_Circle.png"",""images/Blue_Triangle.png"",""images/Blue_Triangle.png""]","true","[[62,233],[250,125],[62,16]]","false",""
"visual-search-circle","69","2.2.0","192149","79221","visual_search_trial","605","","j","","","","","","","","","","null","blue_triangle","2","[""images/Blue_Triangle.png"",""images/Blue_Triangle.png"",""images/Blue_Triangle.png""]","true","[[29,205],[242,167],[103,1]]","false",""
"visual-search-circle","70","2.2.0","194290","79221","visual_search_trial","636","","f","","","","","","","","","","null","red_blue_mix","3","[""images/Red_Triangle.png"",""images/Blue_Triangle.png"",""images/Blue_Circle.png"",""images/Blue_Circle.png"",""images/Blue_Triangle.png"",""images/Red_Circle.png"",""images/Red_Circle.png"",""images/Red_Circle.png"",""images/Red_Circle.png""]","true","[[187,16],[103,1],[29,44],[0,125],[29,205],[103,248],[187,233],[242,167],[242,82]]","true",""
"visual-search-circle","71","2.2.0","196270","79221","visual_search_trial","477","","f","","","","","","","","","","null","red_circle","3","[""images/Red_Triangle.png"",""images/Red_Circle.png"",""images/Red_Circle.png""]","true","[[148,247],[219,42],[6,84]]","true",""
"visual-search-circle","72","2.2.0","198269","79221","visual_search_trial","495","","f","","","","","","","","","","null","red_blue_mix","3","[""images/Red_Triangle.png"",""images/Blue_Circle.png"",""images/Blue_Circle.png"",""images/Red_Circle.png"",""images/Blue_Triangle.png"",""images/Blue_Triangle.png""]","true","[[122,249],[232,189],[234,64],[127,0],[17,60],[15,185]]","true",""
"visual-search-circle","73","2.2.0","200282","79221","visual_search_trial","508","","j","","","","","","","","","","null","blue_triangle","3","[""images/Blue_Triangle.png"",""images/Blue_Triangle.png"",""images/Blue_Triangle.png"",""images/Blue_Triangle.png"",""images/Blue_Triangle.png"",""images/Blue_Triangle.png""]","true","[[219,42],[101,2],[6,84],[30,207],[148,247],[243,165]]","false",""
"visual-search-circle","74","2.2.0","202449","79221","visual_search_trial","662","","j","","","","","","","","","","null","red_circle","3","[""images/Red_Circle.png"",""images/Red_Circle.png"",""images/Red_Circle.png"",""images/Red_Circle.png"",""images/Red_Circle.png"",""images/Red_Circle.png"",""images/Red_Circle.png"",""images/Red_Circle.png"",""images/Red_Circle.png""]","true","[[245,159],[239,74],[179,12],[94,3],[23,51],[0,133],[35,211],[111,249],[194,228]]","false",""
"visual-search-circle","75","2.2.0","204388","79221","visual_search_trial","435","","f","","","","","","","","","","null","red_blue_mix","3","[""images/Red_Triangle.png"",""images/Red_Circle.png"",""images/Blue_Triangle.png""]","true","[[1,107],[171,240],[201,26]]","true",""
"visual-search-circle","76","2.2.0","206395","79221","visual_search_trial","503","","j","","","","","","","","","","null","blue_triangle","3","[""images/Blue_Triangle.png"",""images/Blue_Triangle.png"",""images/Blue_Triangle.png""]","true","[[109,0],[25,200],[240,173]]","false",""
"visual-search-circle","77","2.2.0","208590","79221","visual_search_trial","690","","j","","","","","","","","","","null","red_circle","3","[""images/Red_Circle.png"",""images/Red_Circle.png"",""images/Red_Circle.png"",""images/Red_Circle.png"",""images/Red_Circle.png"",""images/Red_Circle.png""]","true","[[157,4],[36,36],[4,157],[92,245],[213,213],[245,92]]","false",""
"visual-search-circle","78","2.2.0","210541","79221","visual_search_trial","446","","f","","","","","","","","","","null","blue_triangle","3","[""images/Red_Triangle.png"",""images/Blue_Triangle.png"",""images/Blue_Triangle.png"",""images/Blue_Triangle.png"",""images/Blue_Triangle.png"",""images/Blue_Triangle.png"",""images/Blue_Triangle.png"",""images/Blue_Triangle.png"",""images/Blue_Triangle.png""]","true","[[0,122],[27,203],[101,247],[185,234],[241,169],[243,84],[189,17],[105,1],[30,42]]","true",""
"visual-search-circle","79","2.2.0","213099","79221","visual_search_trial","1052","","j","","","","","","","","","","null","red_blue_mix","3","[""images/Blue_Triangle.png"",""images/Red_Circle.png"",""images/Red_Circle.png"",""images/Blue_Circle.png"",""images/Red_Circle.png"",""images/Blue_Triangle.png"",""images/Blue_Circle.png"",""images/Red_Circle.png"",""images/Blue_Circle.png""]","true","[[116,249],[198,226],[246,155],[237,70],[175,10],[90,4],[21,55],[0,138],[38,214]]","false",""
"visual-search-circle","80","2.2.0","215084","79221","visual_search_trial","480","","j","","","","","","","","","","null","blue_triangle","3","[""images/Blue_Triangle.png"",""images/Blue_Triangle.png"",""images/Blue_Triangle.png"",""images/Blue_Triangle.png"",""images/Blue_Triangle.png"",""images/Blue_Triangle.png"",""images/Blue_Triangle.png"",""images/Blue_Triangle.png"",""images/Blue_Triangle.png""]","true","[[118,0],[39,33],[0,109],[20,193],[88,244],[173,240],[236,181],[246,96],[200,25]]","false",""
"visual-search-circle","81","2.2.0","217344","79221","visual_search_trial","755","","f","","","","","","","","","","null","red_circle","3","[""images/Red_Triangle.png"",""images/Red_Circle.png"",""images/Red_Circle.png"",""images/Red_Circle.png"",""images/Red_Circle.png"",""images/Red_Circle.png"",""images/Red_Circle.png"",""images/Red_Circle.png"",""images/Red_Circle.png""]","true","[[216,39],[140,0],[56,20],[5,88],[9,173],[68,236],[153,246],[224,200],[249,118]]","true",""
"visual-search-circle","82","2.2.0","219328","79221","visual_search_trial","478","","f","","","","","","","","","","null","blue_triangle","3","[""images/Red_Triangle.png"",""images/Blue_Triangle.png"",""images/Blue_Triangle.png"",""images/Blue_Triangle.png"",""images/Blue_Triangle.png"",""images/Blue_Triangle.png""]","true","[[231,191],[235,66],[129,0],[18,58],[14,183],[120,249]]","true",""
"visual-search-circle","83","2.2.0","221565","79221","visual_search_trial","734","","j","","","","","","","","","","null","red_blue_mix","3","[""images/Blue_Triangle.png"",""images/Blue_Triangle.png"",""images/Red_Circle.png""]","true","[[239,175],[111,0],[23,198]]","false",""
"visual-search-circle","84","2.2.0","223769","79221","visual_search_trial","700","","f","","","","","","","","","","null","red_circle","3","[""images/Red_Triangle.png"",""images/Red_Circle.png"",""images/Red_Circle.png"",""images/Red_Circle.png"",""images/Red_Circle.png"",""images/Red_Circle.png""]","true","[[240,173],[224,49],[109,0],[9,76],[25,200],[140,249]]","true",""
"visual-search-circle","85","2.2.0","226057","79221","visual_search_trial","784","","f","","","","","","","","","","null","blue_triangle","3","[""images/Red_Triangle.png"",""images/Blue_Triangle.png"",""images/Blue_Triangle.png""]","true","[[153,246],[216,39],[5,88]]","true",""
"visual-search-circle","86","2.2.0","228085","79221","visual_search_trial","525","","j","","","","","","","","","","null","red_circle","3","[""images/Red_Circle.png"",""images/Red_Circle.png"",""images/Red_Circle.png""]","true","[[226,198],[138,0],[10,175]]","false",""
"visual-search-circle","87","2.2.0","230793","79221","visual_search_trial","1203","","j","","","","","","","","","","null","red_blue_mix","3","[""images/Blue_Circle.png"",""images/Blue_Triangle.png"",""images/Red_Circle.png"",""images/Red_Circle.png"",""images/Red_Circle.png"",""images/Blue_Triangle.png""]","true","[[133,0],[21,55],[12,179],[116,249],[228,194],[237,70]]","false",""
"html-keyboard-response","88","2.1.0","233106","79221","break","2312","<p>Great job so far! Please rest for a few seconds before continuing.</p>
                 <p>Press the <strong>U</strong> key on your keyboard to continue.</p>","u","","","","","","","","","","","","","","","","","U"
"visual-search-circle","89","2.2.0","236175","79221","visual_search_trial","1564","","j","","","","","","","","","","null","red_circle","4","[""images/Red_Circle.png"",""images/Red_Circle.png"",""images/Red_Circle.png"",""images/Red_Circle.png"",""images/Red_Circle.png"",""images/Red_Circle.png"",""images/Red_Circle.png"",""images/Red_Circle.png"",""images/Red_Circle.png""]","true","[[131,0],[49,25],[3,96],[13,181],[76,240],[161,244],[229,193],[249,109],[210,33]]","false",""
"visual-search-circle","90","2.2.0","238432","79221","visual_search_trial","751","","j","","","","","","","","","","null","red_blue_mix","4","[""images/Blue_Triangle.png"",""images/Blue_Triangle.png"",""images/Red_Circle.png"",""images/Blue_Circle.png"",""images/Red_Circle.png"",""images/Blue_Triangle.png""]","true","[[7,167],[103,248],[220,205],[242,82],[146,1],[29,44]]","false",""
"visual-search-circle","91","2.2.0","240431","79221","visual_search_trial","495","","j","","","","","","","","","","null","blue_triangle","4","[""images/Blue_Triangle.png"",""images/Blue_Triangle.png"",""images/Blue_Triangle.png"",""images/Blue_Triangle.png"",""images/Blue_Triangle.png"",""images/Blue_Triangle.png""]","true","[[249,114],[177,11],[53,22],[0,135],[72,238],[196,227]]","false",""
"visual-search-circle","92","2.2.0","242999","79221","visual_search_trial","1064","","j","","","","","","","","","","null","red_circle","4","[""images/Red_Circle.png"",""images/Red_Circle.png"",""images/Red_Circle.png""]","true","[[239,74],[23,51],[111,249]]","false",""
"visual-search-circle","93","2.2.0","245365","79221","visual_search_trial","860","","f","","","","","","","","","","null","red_blue_mix","4","[""images/Red_Triangle.png"",""images/Blue_Triangle.png"",""images/Blue_Circle.png"",""images/Red_Circle.png"",""images/Red_Circle.png"",""images/Blue_Circle.png"",""images/Red_Circle.png"",""images/Blue_Circle.png"",""images/Red_Circle.png""]","true","[[138,249],[214,211],[249,133],[226,51],[155,3],[70,12],[10,74],[4,159],[55,228]]","true",""
"visual-search-circle","94","2.2.0","247465","79221","visual_search_trial","596","","f","","","","","","","","","","null","red_circle","4","[""images/Red_Triangle.png"",""images/Red_Circle.png"",""images/Red_Circle.png"",""images/Red_Circle.png"",""images/Red_Circle.png"",""images/Red_Circle.png""]","true","[[240,78],[142,1],[26,48],[9,171],[107,248],[223,201]]","true",""
"visual-search-circle","95","2.2.0","249548","79221","visual_search_trial","577","","j","","","","","","","","","","null","blue_triangle","4","[""images/Blue_Triangle.png"",""images/Blue_Triangle.png"",""images/Blue_Triangle.png"",""images/Blue_Triangle.png"",""images/Blue_Triangle.png"",""images/Blue_Triangle.png"",""images/Blue_Triangle.png"",""images/Blue_Triangle.png"",""images/Blue_Triangle.png""]","true","[[201,223],[247,150],[235,66],[171,9],[86,6],[18,58],[1,142],[41,217],[120,249]]","false",""
"visual-search-circle","96","2.2.0","252064","79221","visual_search_trial","1013","","j","","","","","","","","","","null","red_blue_mix","4","[""images/Blue_Circle.png"",""images/Red_Circle.png"",""images/Blue_Circle.png""]","true","[[142,248],[223,48],[9,78]]","false",""
"visual-search-circle","97","2.2.0","254081","79221","visual_search_trial","511","","f","","","","","","","","","","null","blue_triangle","4","[""images/Red_Triangle.png"",""images/Blue_Triangle.png"",""images/Blue_Triangle.png"",""images/Blue_Triangle.png"",""images/Blue_Triangle.png"",""images/Blue_Triangle.png"",""images/Blue_Triangle.png"",""images/Blue_Triangle.png"",""images/Blue_Triangle.png""]","true","[[1,107],[18,191],[86,243],[171,240],[235,183],[247,99],[201,26],[120,0],[41,32]]","true",""
"visual-search-circle","98","2.2.0","256259","79221","visual_search_trial","674","","f","","","","","","","","","","null","red_blue_mix","4","[""images/Red_Triangle.png"",""images/Blue_Circle.png"",""images/Blue_Triangle.png"",""images/Blue_Circle.png"",""images/Blue_Triangle.png"",""images/Red_Circle.png""]","true","[[246,94],[159,4],[38,35],[3,155],[90,245],[211,214]]","true",""
"visual-search-circle","99","2.2.0","258281","79221","visual_search_trial","518","","f","","","","","","","","","","null","blue_triangle","4","[""images/Red_Triangle.png"",""images/Blue_Triangle.png"",""images/Blue_Triangle.png"",""images/Blue_Triangle.png"",""images/Blue_Triangle.png"",""images/Blue_Triangle.png""]","true","[[122,0],[15,64],[17,189],[127,249],[234,185],[232,60]]","true",""
"visual-search-circle","100","2.2.0","260314","79221","visual_search_trial","530","","f","","","","","","","","","","null","red_blue_mix","4","[""images/Red_Triangle.png"",""images/Red_Circle.png"",""images/Red_Circle.png""]","true","[[53,22],[72,238],[249,114]]","true",""
"visual-search-circle","101","2.2.0","262381","79221","visual_search_trial","561","","f","","","","","","","","","","null","red_circle","4","[""images/Red_Triangle.png"",""images/Red_Circle.png"",""images/Red_Circle.png"",""images/Red_Circle.png"",""images/Red_Circle.png"",""images/Red_Circle.png"",""images/Red_Circle.png"",""images/Red_Circle.png"",""images/Red_Circle.png""]","true","[[148,247],[222,203],[249,122],[219,42],[144,1],[60,17],[6,84],[8,169],[64,234]]","true",""
"visual-search-circle","102","2.2.0","264881","79221","visual_search_trial","995","","j","","","","","","","","","","null","red_blue_mix","4","[""images/Blue_Triangle.png"",""images/Red_Circle.png"",""images/Blue_Circle.png"",""images/Blue_Triangle.png"",""images/Blue_Circle.png"",""images/Blue_Triangle.png"",""images/Red_Circle.png"",""images/Blue_Triangle.png"",""images/Blue_Triangle.png""]","true","[[226,51],[155,3],[70,12],[10,74],[4,159],[55,228],[138,249],[214,211],[249,133]]","false",""
"visual-search-circle","103","2.2.0","266947","79221","visual_search_trial","562","","f","","","","","","","","","","null","blue_triangle","4","[""images/Red_Triangle.png"",""images/Blue_Triangle.png"",""images/Blue_Triangle.png""]","true","[[200,25],[0,109],[173,240]]","true",""
"visual-search-circle","104","2.2.0","268948","79221","visual_search_trial","497","","j","","","","","","","","","","null","red_circle","4","[""images/Red_Circle.png"",""images/Red_Circle.png"",""images/Red_Circle.png"",""images/Red_Circle.png"",""images/Red_Circle.png"",""images/Red_Circle.png""]","true","[[44,29],[1,146],[82,242],[205,220],[248,103],[167,7]]","false",""
"visual-search-circle","105","2.2.0","271581","79221","visual_search_trial","1129","","j","","","","","","","","","","null","blue_triangle","4","[""images/Blue_Triangle.png"",""images/Blue_Triangle.png"",""images/Blue_Triangle.png""]","true","[[131,249],[229,56],[13,68]]","false",""
"visual-search-circle","106","2.2.0","273597","79221","visual_search_trial","513","","f","","","","","","","","","","null","red_circle","4","[""images/Red_Triangle.png"",""images/Red_Circle.png"",""images/Red_Circle.png""]","true","[[247,148],[84,6],[42,219]]","true",""
"visual-search-circle","107","2.2.0","275598","79221","visual_search_trial","495","","j","","","","","","","","","","null","red_circle","5","[""images/Red_Circle.png"",""images/Red_Circle.png"",""images/Red_Circle.png"",""images/Red_Circle.png"",""images/Red_Circle.png"",""images/Red_Circle.png"",""images/Red_Circle.png"",""images/Red_Circle.png"",""images/Red_Circle.png""]","true","[[5,161],[56,229],[140,249],[216,210],[249,131],[224,49],[153,3],[68,13],[9,76]]","false",""
"visual-search-circle","108","2.2.0","278431","79221","visual_search_trial","1329","","j","","","","","","","","","","null","blue_triangle","5","[""images/Blue_Triangle.png"",""images/Blue_Triangle.png"",""images/Blue_Triangle.png""]","true","[[12,179],[228,194],[133,0]]","false",""
"visual-search-circle","109","2.2.0","280398","79221","visual_search_trial","463","","f","","","","","","","","","","null","red_blue_mix","5","[""images/Red_Triangle.png"",""images/Red_Circle.png"",""images/Blue_Circle.png"",""images/Red_Circle.png"",""images/Blue_Triangle.png"",""images/Blue_Circle.png""]","true","[[48,223],[171,240],[248,142],[201,26],[78,9],[1,107]]","true",""
"visual-search-circle","110","2.2.0","282564","79221","visual_search_trial","661","","f","","","","","","","","","","null","blue_triangle","5","[""images/Red_Triangle.png"",""images/Blue_Triangle.png"",""images/Blue_Triangle.png"",""images/Blue_Triangle.png"",""images/Blue_Triangle.png"",""images/Blue_Triangle.png"",""images/Blue_Triangle.png"",""images/Blue_Triangle.png"",""images/Blue_Triangle.png""]","true","[[90,4],[21,55],[0,138],[38,214],[116,249],[198,226],[246,155],[237,70],[175,10]]","true",""
"visual-search-circle","111","2.2.0","284681","79221","visual_search_trial","612","","j","","","","","","","","","","null","red_circle","5","[""images/Red_Circle.png"",""images/Red_Circle.png"",""images/Red_Circle.png"",""images/Red_Circle.png"",""images/Red_Circle.png"",""images/Red_Circle.png""]","true","[[7,82],[29,205],[146,248],[242,167],[220,44],[103,1]]","false",""
"visual-search-circle","112","2.2.0","287410","79221","visual_search_trial","1223","","j","","","","","","","","","","null","blue_triangle","5","[""images/Blue_Triangle.png"",""images/Blue_Triangle.png"",""images/Blue_Triangle.png"",""images/Blue_Triangle.png"",""images/Blue_Triangle.png"",""images/Blue_Triangle.png"",""images/Blue_Triangle.png"",""images/Blue_Triangle.png"",""images/Blue_Triangle.png""]","true","[[17,189],[84,243],[169,241],[234,185],[247,101],[203,27],[122,0],[42,30],[1,105]]","false",""
"visual-search-circle","113","2.2.0","289547","79221","visual_search_trial","634","","f","","","","","","","","","","null","red_blue_mix","5","[""images/Red_Triangle.png"",""images/Blue_Triangle.png"",""images/Blue_Circle.png""]","true","[[205,220],[167,7],[1,146]]","true",""
"visual-search-circle","114","2.2.0","291531","79221","visual_search_trial","480","","f","","","","","","","","","","null","blue_triangle","5","[""images/Red_Triangle.png"",""images/Blue_Triangle.png"",""images/Blue_Triangle.png"",""images/Blue_Triangle.png"",""images/Blue_Triangle.png"",""images/Blue_Triangle.png""]","true","[[80,8],[1,105],[46,222],[169,241],[248,144],[203,27]]","true",""
"visual-search-circle","115","2.2.0","293514","79221","visual_search_trial","479","","f","","","","","","","","","","null","red_circle","5","[""images/Red_Triangle.png"",""images/Red_Circle.png"",""images/Red_Circle.png""]","true","[[44,29],[82,242],[248,103]]","true",""
"visual-search-circle","116","2.2.0","295472","79221","visual_search_trial","454","","j","","","","","","","","","","null","red_blue_mix","5","[""images/Blue_Circle.png"",""images/Red_Circle.png"",""images/Blue_Circle.png""]","true","[[146,248],[220,44],[7,82]]","false",""
"visual-search-circle","117","2.2.0","297514","79221","visual_search_trial","537","","f","","","","","","","","","","null","red_circle","5","[""images/Red_Triangle.png"",""images/Red_Circle.png"",""images/Red_Circle.png"",""images/Red_Circle.png"",""images/Red_Circle.png"",""images/Red_Circle.png"",""images/Red_Circle.png"",""images/Red_Circle.png"",""images/Red_Circle.png""]","true","[[82,242],[167,242],[233,187],[248,103],[205,29],[125,0],[44,29],[1,103],[16,187]]","true",""
"visual-search-circle","118","2.2.0","299598","79221","visual_search_trial","578","","f","","","","","","","","","","null","red_blue_mix","5","[""images/Red_Triangle.png"",""images/Blue_Triangle.png"",""images/Blue_Circle.png"",""images/Blue_Circle.png"",""images/Blue_Triangle.png"",""images/Red_Circle.png"",""images/Blue_Triangle.png"",""images/Blue_Triangle.png"",""images/Red_Circle.png""]","true","[[55,21],[4,90],[10,175],[70,237],[155,246],[226,198],[249,116],[214,38],[138,0]]","true",""
"visual-search-circle","119","2.2.0","301864","79221","visual_search_trial","762","","j","","","","","","","","","","null","red_circle","5","[""images/Red_Circle.png"",""images/Red_Circle.png"",""images/Red_Circle.png""]","true","[[235,183],[120,0],[18,191]]","false",""
"visual-search-circle","120","2.2.0","304397","79221","visual_search_trial","1029","","j","","","","","","","","","","null","red_blue_mix","5","[""images/Blue_Triangle.png"",""images/Red_Circle.png"",""images/Red_Circle.png"",""images/Red_Circle.png"",""images/Blue_Triangle.png"",""images/Red_Circle.png""]","true","[[58,231],[183,235],[249,129],[191,18],[66,14],[0,120]]","false",""
"visual-search-circle","121","2.2.0","306397","79221","visual_search_trial","496","","f","","","","","","","","","","null","red_circle","5","[""images/Red_Triangle.png"",""images/Red_Circle.png"",""images/Red_Circle.png"",""images/Red_Circle.png"",""images/Red_Circle.png"",""images/Red_Circle.png""]","true","[[0,138],[74,239],[198,226],[249,111],[175,10],[51,23]]","true",""
"visual-search-circle","122","2.2.0","308481","79221","visual_search_trial","579","","j","","","","","","","","","","null","blue_triangle","5","[""images/Blue_Triangle.png"",""images/Blue_Triangle.png"",""images/Blue_Triangle.png"",""images/Blue_Triangle.png"",""images/Blue_Triangle.png"",""images/Blue_Triangle.png""]","true","[[239,175],[226,51],[111,0],[10,74],[23,198],[138,249]]","false",""
"visual-search-circle","123","2.2.0","311014","79221","visual_search_trial","1028","","j","","","","","","","","","","null","red_blue_mix","5","[""images/Red_Circle.png"",""images/Red_Circle.png"",""images/Blue_Circle.png"",""images/Red_Circle.png"",""images/Red_Circle.png"",""images/Blue_Circle.png"",""images/Blue_Triangle.png"",""images/Red_Circle.png"",""images/Blue_Triangle.png""]","true","[[208,32],[129,0],[48,26],[2,99],[14,183],[78,240],[163,243],[231,191],[248,107]]","false",""
"visual-search-circle","124","2.2.0","312998","79221","visual_search_trial","480","","f","","","","","","","","","","null","blue_triangle","5","[""images/Red_Triangle.png"",""images/Blue_Triangle.png"",""images/Blue_Triangle.png""]","true","[[205,29],[1,103],[167,242]]","true",""
"html-keyboard-response","125","2.1.0","315650","79221","break","2652","<p>Great job so far! Please rest for a few seconds before continuing.</p>
                 <p>Press the <strong>W</strong> key on your keyboard to continue.</p>","w","","","","","","","","","","","","","","","","","W"
"visual-search-circle","126","2.2.0","321208","79221","visual_search_trial","4054","","f","","","","","","","","","","null","red_blue_mix","6","[""images/Red_Triangle.png"",""images/Blue_Circle.png"",""images/Blue_Circle.png""]","true","[[244,161],[96,3],[33,210]]","true",""
"visual-search-circle","127","2.2.0","323481","79221","visual_search_trial","770","","j","","","","","","","","","","null","blue_triangle","6","[""images/Blue_Triangle.png"",""images/Blue_Triangle.png"",""images/Blue_Triangle.png""]","true","[[99,2],[32,208],[243,163]]","false",""
"visual-search-circle","128","2.2.0","325599","79221","visual_search_trial","613","","f","","","","","","","","","","null","red_circle","6","[""images/Red_Triangle.png"",""images/Red_Circle.png"",""images/Red_Circle.png"",""images/Red_Circle.png"",""images/Red_Circle.png"",""images/Red_Circle.png"",""images/Red_Circle.png"",""images/Red_Circle.png"",""images/Red_Circle.png""]","true","[[189,232],[243,165],[241,80],[185,15],[101,2],[27,46],[0,127],[30,207],[105,248]]","true",""
"visual-search-circle","129","2.2.0","327620","79221","visual_search_trial","517","","f","","","","","","","","","","null","red_blue_mix","6","[""images/Red_Triangle.png"",""images/Blue_Circle.png"",""images/Red_Circle.png"",""images/Blue_Circle.png"",""images/Blue_Triangle.png"",""images/Blue_Circle.png""]","true","[[12,70],[21,194],[133,249],[237,179],[228,55],[116,0]]","true",""
"visual-search-circle","130","2.2.0","330357","79221","visual_search_trial","1232","","j","","","","","","","","","","null","red_circle","6","[""images/Red_Circle.png"",""images/Red_Circle.png"",""images/Red_Circle.png"",""images/Red_Circle.png"",""images/Red_Circle.png"",""images/Red_Circle.png"",""images/Red_Circle.png"",""images/Red_Circle.png"",""images/Red_Circle.png""]","true","[[183,14],[99,2],[26,48],[0,129],[32,208],[107,248],[191,231],[243,163],[240,78]]","false",""
"visual-search-circle","131","2.2.0","332361","79221","visual_search_trial","499","","j","","","","","","","","","","null","blue_triangle","6","[""images/Blue_Triangle.png"",""images/Blue_Triangle.png"",""images/Blue_Triangle.png"",""images/Blue_Triangle.png"",""images/Blue_Triangle.png"",""images/Blue_Triangle.png"",""images/Blue_Triangle.png"",""images/Blue_Triangle.png"",""images/Blue_Triangle.png""]","true","[[48,223],[129,249],[208,217],[248,142],[231,58],[163,6],[78,9],[14,66],[2,150]]","false",""
"visual-search-circle","132","2.2.0","334279","79221","visual_search_trial","413","","j","","","","","","","","","","null","red_circle","6","[""images/Red_Circle.png"",""images/Red_Circle.png"",""images/Red_Circle.png""]","true","[[242,82],[29,44],[103,248]]","false",""
"visual-search-circle","133","2.2.0","336191","79221","visual_search_trial","409","","j","","","","","","","","","","null","red_blue_mix","6","[""images/Red_Circle.png"",""images/Blue_Circle.png"",""images/Blue_Circle.png""]","true","[[219,207],[148,2],[6,165]]","false",""
"visual-search-circle","134","2.2.0","338208","79221","visual_search_trial","513","","f","","","","","","","","","","null","blue_triangle","6","[""images/Red_Triangle.png"",""images/Blue_Triangle.png"",""images/Blue_Triangle.png"",""images/Blue_Triangle.png"",""images/Blue_Triangle.png"",""images/Blue_Triangle.png"",""images/Blue_Triangle.png"",""images/Blue_Triangle.png"",""images/Blue_Triangle.png""]","true","[[80,241],[165,243],[232,189],[248,105],[207,30],[127,0],[46,27],[2,101],[15,185]]","true",""
"visual-search-circle","135","2.2.0","340147","79221","visual_search_trial","434","","f","","","","","","","","","","null","red_blue_mix","6","[""images/Red_Triangle.png"",""images/Blue_Circle.png"",""images/Red_Circle.png"",""images/Blue_Triangle.png"",""images/Blue_Circle.png"",""images/Blue_Circle.png"",""images/Blue_Circle.png"",""images/Blue_Triangle.png"",""images/Red_Circle.png""]","true","[[155,246],[226,198],[249,116],[214,38],[138,0],[55,21],[4,90],[10,175],[70,237]]","true",""
"visual-search-circle","136","2.2.0","342125","79221","visual_search_trial","474","","f","","","","","","","","","","null","blue_triangle","6","[""images/Red_Triangle.png"",""images/Blue_Triangle.png"",""images/Blue_Triangle.png"",""images/Blue_Triangle.png"",""images/Blue_Triangle.png"",""images/Blue_Triangle.png""]","true","[[228,194],[237,70],[133,0],[21,55],[12,179],[116,249]]","true",""
"visual-search-circle","137","2.2.0","344206","79221","visual_search_trial","577","","f","","","","","","","","","","null","red_circle","6","[""images/Red_Triangle.png"",""images/Red_Circle.png"",""images/Red_Circle.png"",""images/Red_Circle.png"",""images/Red_Circle.png"",""images/Red_Circle.png""]","true","[[2,150],[86,243],[208,217],[247,99],[163,6],[41,32]]","true",""
"visual-search-circle","138","2.2.0","346377","79221","visual_search_trial","667","","j","","","","","","","","","","null","blue_triangle","6","[""images/Blue_Triangle.png"",""images/Blue_Triangle.png"",""images/Blue_Triangle.png"",""images/Blue_Triangle.png"",""images/Blue_Triangle.png"",""images/Blue_Triangle.png""]","true","[[2,101],[42,219],[165,243],[247,148],[207,30],[84,6]]","false",""
"visual-search-circle","139","2.2.0","348393","79221","visual_search_trial","512","","f","","","","","","","","","","null","red_circle","6","[""images/Red_Triangle.png"",""images/Red_Circle.png"",""images/Red_Circle.png""]","true","[[219,207],[148,2],[6,165]]","true",""
"visual-search-circle","140","2.2.0","350663","79221","visual_search_trial","766","","j","","","","","","","","","","null","red_blue_mix","6","[""images/Blue_Circle.png"",""images/Blue_Triangle.png"",""images/Red_Circle.png"",""images/Red_Circle.png"",""images/Blue_Circle.png"",""images/Blue_Triangle.png""]","true","[[0,122],[60,232],[185,234],[249,127],[189,17],[64,15]]","false",""
"visual-search-circle","141","2.2.0","352594","79221","visual_search_trial","426","","j","","","","","","","","","","null","red_circle","6","[""images/Red_Circle.png"",""images/Red_Circle.png"",""images/Red_Circle.png"",""images/Red_Circle.png"",""images/Red_Circle.png"",""images/Red_Circle.png""]","true","[[6,163],[99,247],[217,208],[243,86],[150,2],[32,41]]","false",""
"visual-search-circle","142","2.2.0","355716","79221","visual_search_trial","1618","","j","","","","","","","","","","null","red_blue_mix","6","[""images/Blue_Circle.png"",""images/Blue_Circle.png"",""images/Blue_Triangle.png"",""images/Blue_Triangle.png"",""images/Blue_Circle.png"",""images/Red_Circle.png"",""images/Red_Circle.png"",""images/Red_Circle.png"",""images/Red_Circle.png""]","true","[[14,66],[2,150],[48,223],[129,249],[208,217],[248,142],[231,58],[163,6],[78,9]]","false",""
"visual-search-circle","143","2.2.0","357730","79221","visual_search_trial","511","","f","","","","","","","","","","null","blue_triangle","6","[""images/Red_Triangle.png"",""images/Blue_Triangle.png"",""images/Blue_Triangle.png""]","true","[[133,249],[228,55],[12,70]]","true",""
"visual-search-circle","144","2.2.0","360054","79221","visual_search_trial","820","","f","","","","","","","","","","null","red_blue_mix","7","[""images/Red_Triangle.png"",""images/Blue_Triangle.png"",""images/Red_Circle.png"",""images/Blue_Circle.png"",""images/Red_Circle.png"",""images/Blue_Triangle.png""]","true","[[129,249],[235,183],[231,58],[120,0],[14,66],[18,191]]","true",""
"visual-search-circle","145","2.2.0","362030","79221","visual_search_trial","472","","f","","","","","","","","","","null","red_circle","7","[""images/Red_Triangle.png"",""images/Red_Circle.png"",""images/Red_Circle.png"",""images/Red_Circle.png"",""images/Red_Circle.png"",""images/Red_Circle.png""]","true","[[26,201],[142,248],[240,171],[223,48],[107,1],[9,78]]","true",""
"visual-search-circle","146","2.2.0","364193","79221","visual_search_trial","659","","j","","","","","","","","","","null","red_blue_mix","7","[""images/Red_Circle.png"",""images/Blue_Triangle.png"",""images/Blue_Triangle.png"",""images/Blue_Triangle.png"",""images/Blue_Circle.png"",""images/Red_Circle.png""]","true","[[247,150],[208,32],[86,6],[2,99],[41,217],[163,243]]","false",""
"visual-search-circle","147","2.2.0","366276","79221","visual_search_trial","580","","j","","","","","","","","","","null","blue_triangle","7","[""images/Blue_Triangle.png"",""images/Blue_Triangle.png"",""images/Blue_Triangle.png""]","true","[[38,214],[246,155],[90,4]]","false",""
"visual-search-circle","148","2.2.0","369339","79221","visual_search_trial","1559","","j","","","","","","","","","","null","red_blue_mix","7","[""images/Blue_Triangle.png"",""images/Red_Circle.png"",""images/Red_Circle.png"",""images/Blue_Triangle.png"",""images/Red_Circle.png"",""images/Blue_Circle.png"",""images/Red_Circle.png"",""images/Blue_Triangle.png"",""images/Blue_Circle.png""]","true","[[16,187],[82,242],[167,242],[233,187],[248,103],[205,29],[125,0],[44,29],[1,103]]","false",""
"visual-search-circle","149","2.2.0","371260","79221","visual_search_trial","419","","f","","","","","","","","","","null","blue_triangle","7","[""images/Red_Triangle.png"",""images/Blue_Triangle.png"",""images/Blue_Triangle.png""]","true","[[13,181],[229,193],[131,0]]","true",""
"visual-search-circle","150","2.2.0","373183","79221","visual_search_trial","418","","j","","","","","","","","","","null","red_circle","7","[""images/Red_Circle.png"",""images/Red_Circle.png"",""images/Red_Circle.png"",""images/Red_Circle.png"",""images/Red_Circle.png"",""images/Red_Circle.png""]","true","[[36,36],[4,157],[92,245],[213,213],[245,92],[157,4]]","false",""
"visual-search-circle","151","2.2.0","375400","79221","visual_search_trial","714","","j","","","","","","","","","","null","red_blue_mix","7","[""images/Red_Triangle.png"",""images/Blue_Circle.png"",""images/Blue_Circle.png""]","false","[[240,78],[26,48],[107,248]]","true",""
"visual-search-circle","152","2.2.0","377798","79221","visual_search_trial","894","","j","","","","","","","","","","null","blue_triangle","7","[""images/Blue_Triangle.png"",""images/Blue_Triangle.png"",""images/Blue_Triangle.png"",""images/Blue_Triangle.png"",""images/Blue_Triangle.png"",""images/Blue_Triangle.png""]","true","[[0,129],[66,235],[191,231],[249,120],[183,14],[58,18]]","false",""
"visual-search-circle","153","2.2.0","379885","79221","visual_search_trial","581","","j","","","","","","","","","","null","red_circle","7","[""images/Red_Circle.png"",""images/Red_Circle.png"",""images/Red_Circle.png"",""images/Red_Circle.png"",""images/Red_Circle.png"",""images/Red_Circle.png"",""images/Red_Circle.png"",""images/Red_Circle.png"",""images/Red_Circle.png""]","true","[[4,159],[55,228],[138,249],[214,211],[249,133],[226,51],[155,3],[70,12],[10,74]]","false",""
"visual-search-circle","154","2.2.0","382251","79221","visual_search_trial","863","","j","","","","","","","","","","null","red_blue_mix","7","[""images/Blue_Circle.png"",""images/Blue_Triangle.png"",""images/Red_Circle.png""]","true","[[191,231],[183,14],[0,129]]","false",""
"visual-search-circle","155","2.2.0","384429","79221","visual_search_trial","673","","j","","","","","","","","","","null","blue_triangle","7","[""images/Blue_Triangle.png"",""images/Blue_Triangle.png"",""images/Blue_Triangle.png"",""images/Blue_Triangle.png"",""images/Blue_Triangle.png"",""images/Blue_Triangle.png"",""images/Blue_Triangle.png"",""images/Blue_Triangle.png"",""images/Blue_Triangle.png""]","true","[[155,3],[70,12],[10,74],[4,159],[55,228],[138,249],[214,211],[249,133],[226,51]]","false",""
"visual-search-circle","156","2.2.0","386473","79221","visual_search_trial","540","","f","","","","","","","","","","null","red_circle","7","[""images/Red_Triangle.png"",""images/Red_Circle.png"",""images/Red_Circle.png"",""images/Red_Circle.png"",""images/Red_Circle.png"",""images/Red_Circle.png"",""images/Red_Circle.png"",""images/Red_Circle.png"",""images/Red_Circle.png""]","true","[[173,240],[236,181],[246,96],[200,25],[118,0],[39,33],[0,109],[20,193],[88,244]]","true",""
"visual-search-circle","157","2.2.0","388657","79221","visual_search_trial","679","","f","","","","","","","","","","null","red_blue_mix","7","[""images/Red_Triangle.png"",""images/Blue_Circle.png"",""images/Blue_Triangle.png"",""images/Blue_Circle.png"",""images/Red_Circle.png"",""images/Blue_Triangle.png"",""images/Red_Circle.png"",""images/Blue_Triangle.png"",""images/Blue_Triangle.png""]","true","[[237,179],[246,94],[198,23],[116,0],[38,35],[0,111],[21,194],[90,245],[175,239]]","true",""
"visual-search-circle","158","2.2.0","390772","79221","visual_search_trial","612","","j","","","","","","","","","","null","red_circle","7","[""images/Red_Circle.png"",""images/Red_Circle.png"",""images/Red_Circle.png""]","true","[[196,227],[177,11],[0,135]]","false",""
"visual-search-circle","159","2.2.0","392816","79221","visual_search_trial","539","","f","","","","","","","","","","null","blue_triangle","7","[""images/Red_Triangle.png"",""images/Blue_Triangle.png"",""images/Blue_Triangle.png"",""images/Blue_Triangle.png"",""images/Blue_Triangle.png"",""images/Blue_Triangle.png""]","true","[[27,46],[8,169],[105,248],[222,203],[241,80],[144,1]]","true",""
"visual-search-circle","160","2.2.0","395008","79221","visual_search_trial","688","","f","","","","","","","","","","null","red_circle","7","[""images/Red_Triangle.png"",""images/Red_Circle.png"",""images/Red_Circle.png""]","true","[[0,111],[175,239],[198,23]]","true",""
"visual-search-circle","161","2.2.0","397154","79221","visual_search_trial","640","","f","","","","","","","","","","null","blue_triangle","7","[""images/Red_Triangle.png"",""images/Blue_Triangle.png"",""images/Blue_Triangle.png"",""images/Blue_Triangle.png"",""images/Blue_Triangle.png"",""images/Blue_Triangle.png"",""images/Blue_Triangle.png"",""images/Blue_Triangle.png"",""images/Blue_Triangle.png""]","true","[[0,127],[30,207],[105,248],[189,232],[243,165],[241,80],[185,15],[101,2],[27,46]]","true",""
"html-keyboard-response","162","2.1.0","1462143","79221","break","715063","<p>Great job so far! Please rest for a few seconds before continuing.</p>
                 <p>Press the <strong>O</strong> key on your keyboard to continue.</p>","o","","","","","","","","","","","","","","","","","O"
"visual-search-circle","163","2.2.0","1466438","79221","visual_search_trial","2791","","f","","","","","","","","","","null","red_blue_mix","8","[""images/Red_Triangle.png"",""images/Red_Circle.png"",""images/Red_Circle.png"",""images/Blue_Triangle.png"",""images/Blue_Triangle.png"",""images/Blue_Triangle.png""]","true","[[2,101],[42,219],[165,243],[247,148],[207,30],[84,6]]","true",""
"visual-search-circle","164","2.2.0","1468647","79221","visual_search_trial","703","","f","","","","","","","","","","null","blue_triangle","8","[""images/Red_Triangle.png"",""images/Blue_Triangle.png"",""images/Blue_Triangle.png"",""images/Blue_Triangle.png"",""images/Blue_Triangle.png"",""images/Blue_Triangle.png"",""images/Blue_Triangle.png"",""images/Blue_Triangle.png"",""images/Blue_Triangle.png""]","true","[[232,189],[248,105],[207,30],[127,0],[46,27],[2,101],[15,185],[80,241],[165,243]]","true",""
"visual-search-circle","165","2.2.0","1470636","79221","visual_search_trial","483","","f","","","","","","","","","","null","red_blue_mix","8","[""images/Red_Triangle.png"",""images/Red_Circle.png"",""images/Blue_Triangle.png"",""images/Red_Circle.png"",""images/Red_Circle.png"",""images/Red_Circle.png"",""images/Blue_Circle.png"",""images/Blue_Triangle.png"",""images/Blue_Circle.png""]","true","[[7,167],[62,233],[146,248],[220,205],[250,125],[220,44],[146,1],[62,16],[7,82]]","true",""
"visual-search-circle","166","2.2.0","1472605","79221","visual_search_trial","464","","f","","","","","","","","","","null","blue_triangle","8","[""images/Red_Triangle.png"",""images/Blue_Triangle.png"",""images/Blue_Triangle.png"",""images/Blue_Triangle.png"",""images/Blue_Triangle.png"",""images/Blue_Triangle.png""]","true","[[229,193],[236,68],[131,0],[20,56],[13,181],[118,249]]","true",""
"visual-search-circle","167","2.2.0","1474946","79221","visual_search_trial","838","","f","","","","","","","","","","null","red_circle","8","[""images/Red_Triangle.png"",""images/Red_Circle.png"",""images/Red_Circle.png"",""images/Red_Circle.png"",""images/Red_Circle.png"",""images/Red_Circle.png""]","true","[[80,241],[203,222],[248,105],[169,8],[46,27],[1,144]]","true",""
"visual-search-circle","168","2.2.0","1477029","79221","visual_search_trial","579","","f","","","","","","","","","","null","red_blue_mix","8","[""images/Blue_Triangle.png"",""images/Blue_Circle.png"",""images/Blue_Circle.png"",""images/Blue_Circle.png"",""images/Blue_Triangle.png"",""images/Blue_Circle.png""]","false","[[118,249],[229,193],[236,68],[131,0],[20,56],[13,181]]","false",""
"visual-search-circle","169","2.2.0","1478981","79221","visual_search_trial","448","","f","","","","","","","","","","null","blue_triangle","8","[""images/Red_Triangle.png"",""images/Blue_Triangle.png"",""images/Blue_Triangle.png""]","true","[[66,14],[58,231],[249,129]]","true",""
"visual-search-circle","170","2.2.0","1481006","79221","visual_search_trial","523","","f","","","","","","","","","","null","red_circle","8","[""images/Red_Triangle.png"",""images/Red_Circle.png"",""images/Red_Circle.png""]","true","[[249,111],[51,23],[74,239]]","true",""
"visual-search-circle","171","2.2.0","1483148","79221","visual_search_trial","638","","f","","","","","","","","","","null","red_blue_mix","8","[""images/Red_Triangle.png"",""images/Blue_Triangle.png"",""images/Blue_Circle.png""]","true","[[105,248],[241,80],[27,46]]","true",""
"visual-search-circle","172","2.2.0","1485216","79221","visual_search_trial","565","","j","","","","","","","","","","null","blue_triangle","8","[""images/Blue_Triangle.png"",""images/Blue_Triangle.png"",""images/Blue_Triangle.png""]","true","[[35,38],[94,246],[245,90]]","false",""
"visual-search-circle","173","2.2.0","1487389","79221","visual_search_trial","670","","j","","","","","","","","","","null","red_circle","8","[""images/Red_Circle.png"",""images/Red_Circle.png"",""images/Red_Circle.png""]","true","[[15,185],[232,189],[127,0]]","false",""
"visual-search-circle","174","2.2.0","1489754","79221","visual_search_trial","859","","j","","","","","","","","","","null","red_blue_mix","8","[""images/Blue_Circle.png"",""images/Blue_Triangle.png"",""images/Red_Circle.png"",""images/Blue_Circle.png"",""images/Red_Circle.png"",""images/Blue_Triangle.png"",""images/Blue_Triangle.png"",""images/Blue_Circle.png"",""images/Blue_Circle.png""]","true","[[226,198],[249,116],[214,38],[138,0],[55,21],[4,90],[10,175],[70,237],[155,246]]","false",""
"visual-search-circle","175","2.2.0","1491819","79221","visual_search_trial","560","","j","","","","","","","","","","null","red_circle","8","[""images/Red_Circle.png"",""images/Red_Circle.png"",""images/Red_Circle.png"",""images/Red_Circle.png"",""images/Red_Circle.png"",""images/Red_Circle.png""]","true","[[142,1],[26,48],[9,171],[107,248],[223,201],[240,78]]","false",""
"visual-search-circle","176","2.2.0","1493868","79221","visual_search_trial","546","","f","","","","","","","","","","null","red_blue_mix","8","[""images/Blue_Circle.png"",""images/Blue_Triangle.png"",""images/Blue_Triangle.png""]","false","[[86,243],[247,99],[41,32]]","false",""
"visual-search-circle","177","2.2.0","1495886","79221","visual_search_trial","512","","j","","","","","","","","","","null","red_circle","8","[""images/Red_Circle.png"",""images/Red_Circle.png"",""images/Red_Circle.png"",""images/Red_Circle.png"",""images/Red_Circle.png"",""images/Red_Circle.png"",""images/Red_Circle.png"",""images/Red_Circle.png"",""images/Red_Circle.png""]","true","[[157,245],[227,196],[249,114],[213,36],[135,0],[53,22],[4,92],[11,177],[72,238]]","false",""
"visual-search-circle","178","2.2.0","1498096","79221","visual_search_trial","706","","j","","","","","","","","","","null","blue_triangle","8","[""images/Blue_Triangle.png"",""images/Blue_Triangle.png"",""images/Blue_Triangle.png"",""images/Blue_Triangle.png"",""images/Blue_Triangle.png"",""images/Blue_Triangle.png""]","true","[[244,161],[216,39],[96,3],[5,88],[33,210],[153,246]]","false",""
"visual-search-circle","179","2.2.0","1500226","79221","visual_search_trial","624","","f","","","","","","","","","","null","red_circle","8","[""images/Red_Triangle.png"",""images/Red_Circle.png"",""images/Red_Circle.png"",""images/Red_Circle.png"",""images/Red_Circle.png"",""images/Red_Circle.png"",""images/Red_Circle.png"",""images/Red_Circle.png"",""images/Red_Circle.png""]","true","[[82,7],[16,62],[1,146],[44,220],[125,250],[205,220],[248,146],[233,62],[167,7]]","true",""
"visual-search-circle","180","2.2.0","1502230","79221","visual_search_trial","498","","j","","","","","","","","","","null","blue_triangle","8","[""images/Blue_Triangle.png"",""images/Blue_Triangle.png"",""images/Blue_Triangle.png"",""images/Blue_Triangle.png"",""images/Blue_Triangle.png"",""images/Blue_Triangle.png"",""images/Blue_Triangle.png"",""images/Blue_Triangle.png"",""images/Blue_Triangle.png""]","true","[[60,232],[144,248],[219,207],[249,127],[222,46],[148,2],[64,15],[8,80],[6,165]]","false",""
"visual-search-circle","181","2.2.0","1504388","79221","visual_search_trial","654","","j","","","","","","","","","","null","red_blue_mix","9","[""images/Blue_Circle.png"",""images/Blue_Circle.png"",""images/Blue_Triangle.png"",""images/Blue_Triangle.png"",""images/Blue_Triangle.png"",""images/Blue_Circle.png""]","true","[[38,35],[3,155],[90,245],[211,214],[246,94],[159,4]]","false",""
"visual-search-circle","182","2.2.0","1507320","79221","visual_search_trial","1428","","j","","","","","","","","","","null","red_circle","9","[""images/Red_Circle.png"",""images/Red_Circle.png"",""images/Red_Circle.png""]","true","[[161,244],[210,33],[3,96]]","false",""
"visual-search-circle","183","2.2.0","1509320","79221","visual_search_trial","496","","f","","","","","","","","","","null","blue_triangle","9","[""images/Red_Triangle.png"",""images/Blue_Triangle.png"",""images/Blue_Triangle.png"",""images/Blue_Triangle.png"",""images/Blue_Triangle.png"",""images/Blue_Triangle.png""]","true","[[247,148],[207,30],[84,6],[2,101],[42,219],[165,243]]","true",""
"visual-search-circle","184","2.2.0","1511274","79221","visual_search_trial","450","","f","","","","","","","","","","null","red_circle","9","[""images/Red_Triangle.png"",""images/Red_Circle.png"",""images/Red_Circle.png""]","true","[[103,248],[242,82],[29,44]]","true",""
"visual-search-circle","185","2.2.0","1513419","79221","visual_search_trial","640","","f","","","","","","","","","","null","red_blue_mix","9","[""images/Red_Triangle.png"",""images/Blue_Circle.png"",""images/Blue_Circle.png"",""images/Blue_Circle.png"",""images/Blue_Circle.png"",""images/Red_Circle.png""]","true","[[20,193],[131,249],[236,181],[229,56],[118,0],[13,68]]","true",""
"visual-search-circle","186","2.2.0","1515468","79221","visual_search_trial","545","","j","","","","","","","","","","null","blue_triangle","9","[""images/Blue_Triangle.png"",""images/Blue_Triangle.png"",""images/Blue_Triangle.png""]","true","[[249,133],[70,12],[55,228]]","false",""
"visual-search-circle","187","2.2.0","1517653","79221","visual_search_trial","681","","f","","","","","","","","","","null","red_circle","9","[""images/Red_Triangle.png"",""images/Red_Circle.png"",""images/Red_Circle.png"",""images/Red_Circle.png"",""images/Red_Circle.png"",""images/Red_Circle.png""]","true","[[240,171],[223,48],[107,1],[9,78],[26,201],[142,248]]","true",""
"visual-search-circle","188","2.2.0","1519862","79221","visual_search_trial","703","","f","","","","","","","","","","null","blue_triangle","9","[""images/Red_Triangle.png"",""images/Blue_Triangle.png"",""images/Blue_Triangle.png"",""images/Blue_Triangle.png"",""images/Blue_Triangle.png"",""images/Blue_Triangle.png"",""images/Blue_Triangle.png"",""images/Blue_Triangle.png"",""images/Blue_Triangle.png""]","true","[[2,101],[15,185],[80,241],[165,243],[232,189],[248,105],[207,30],[127,0],[46,27]]","true",""
"visual-search-circle","189","2.2.0","1522628","79221","visual_search_trial","1264","","j","","","","","","","","","","null","red_blue_mix","9","[""images/Red_Circle.png"",""images/Red_Circle.png"",""images/Blue_Triangle.png""]","true","[[245,157],[92,4],[36,213]]","false",""
"visual-search-circle","190","2.2.0","1524619","79221","visual_search_trial","488","","f","","","","","","","","","","null","blue_triangle","9","[""images/Red_Triangle.png"",""images/Blue_Triangle.png"",""images/Blue_Triangle.png""]","true","[[150,247],[217,41],[6,86]]","true",""
"visual-search-circle","191","2.2.0","1526718","79221","visual_search_trial","595","","f","","","","","","","","","","null","red_blue_mix","9","[""images/Red_Triangle.png"",""images/Red_Circle.png"",""images/Red_Circle.png""]","true","[[114,0],[22,196],[238,177]]","true",""
"visual-search-circle","192","2.2.0","1528947","79221","visual_search_trial","724","","j","","","","","","","","","","null","blue_triangle","9","[""images/Blue_Triangle.png"",""images/Blue_Triangle.png"",""images/Blue_Triangle.png"",""images/Blue_Triangle.png"",""images/Blue_Triangle.png"",""images/Blue_Triangle.png"",""images/Blue_Triangle.png"",""images/Blue_Triangle.png"",""images/Blue_Triangle.png""]","true","[[248,144],[232,60],[165,6],[80,8],[15,64],[2,148],[46,222],[127,249],[207,219]]","false",""
"visual-search-circle","193","2.2.0","1531029","79221","visual_search_trial","577","","j","","","","","","","","","","null","red_circle","9","[""images/Red_Circle.png"",""images/Red_Circle.png"",""images/Red_Circle.png"",""images/Red_Circle.png"",""images/Red_Circle.png"",""images/Red_Circle.png""]","true","[[191,231],[249,120],[183,14],[58,18],[0,129],[66,235]]","false",""
"visual-search-circle","194","2.2.0","1533324","79221","visual_search_trial","790","","j","","","","","","","","","","null","red_blue_mix","9","[""images/Blue_Triangle.png"",""images/Blue_Triangle.png"",""images/Blue_Circle.png"",""images/Blue_Triangle.png"",""images/Blue_Circle.png"",""images/Red_Circle.png"",""images/Red_Circle.png"",""images/Blue_Triangle.png"",""images/Blue_Circle.png""]","true","[[211,214],[249,138],[228,55],[159,4],[74,10],[12,70],[3,155],[51,226],[133,249]]","false",""
"visual-search-circle","195","2.2.0","1535371","79221","visual_search_trial","543","","j","","","","","","","","","","null","blue_triangle","9","[""images/Blue_Triangle.png"",""images/Blue_Triangle.png"",""images/Blue_Triangle.png"",""images/Blue_Triangle.png"",""images/Blue_Triangle.png"",""images/Blue_Triangle.png""]","true","[[217,208],[243,86],[150,2],[32,41],[6,163],[99,247]]","false",""
"visual-search-circle","196","2.2.0","1537447","79221","visual_search_trial","571","","j","","","","","","","","","","null","red_circle","9","[""images/Red_Circle.png"",""images/Red_Circle.png"",""images/Red_Circle.png"",""images/Red_Circle.png"",""images/Red_Circle.png"",""images/Red_Circle.png"",""images/Red_Circle.png"",""images/Red_Circle.png"",""images/Red_Circle.png""]","true","[[2,99],[14,183],[78,240],[163,243],[231,191],[248,107],[208,32],[129,0],[48,26]]","false",""
"visual-search-circle","197","2.2.0","1539459","79221","visual_search_trial","507","","f","","","","","","","","","","null","red_blue_mix","9","[""images/Red_Triangle.png"",""images/Blue_Triangle.png"",""images/Blue_Circle.png"",""images/Blue_Circle.png"",""images/Blue_Circle.png"",""images/Blue_Circle.png"",""images/Blue_Circle.png"",""images/Blue_Triangle.png"",""images/Blue_Circle.png""]","true","[[48,223],[129,249],[208,217],[248,142],[231,58],[163,6],[78,9],[14,66],[2,150]]","true",""
"visual-search-circle","198","2.2.0","1541675","79221","visual_search_trial","711","","f","","","","","","","","","","null","red_circle","9","[""images/Red_Triangle.png"",""images/Red_Circle.png"",""images/Red_Circle.png"",""images/Red_Circle.png"",""images/Red_Circle.png"",""images/Red_Circle.png"",""images/Red_Circle.png"",""images/Red_Circle.png"",""images/Red_Circle.png""]","true","[[135,249],[213,213],[249,135],[227,53],[157,4],[72,11],[11,72],[4,157],[53,227]]","true",""
"html-keyboard-response","199","2.1.0","1596837","79221","break","55161","<p>Great job so far! Please rest for a few seconds before continuing.</p>
                 <p>Press the <strong>G</strong> key on your keyboard to continue.</p>","g","","","","","","","","","","","","","","","","","G"
"visual-search-circle","200","2.2.0","1600111","79221","visual_search_trial","1770","","f","","","","","","","","","","null","red_circle","10","[""images/Red_Triangle.png"",""images/Red_Circle.png"",""images/Red_Circle.png""]","true","[[39,216],[246,153],[88,5]]","true",""
"visual-search-circle","201","2.2.0","1602283","79221","visual_search_trial","668","","j","","","","","","","","","","null","red_blue_mix","10","[""images/Blue_Circle.png"",""images/Blue_Triangle.png"",""images/Red_Circle.png"",""images/Red_Circle.png"",""images/Red_Circle.png"",""images/Blue_Triangle.png""]","true","[[56,20],[0,131],[68,236],[193,229],[249,118],[181,13]]","false",""
"visual-search-circle","202","2.2.0","1604386","79221","visual_search_trial","600","","j","","","","","","","","","","null","blue_triangle","10","[""images/Blue_Triangle.png"",""images/Blue_Triangle.png"",""images/Blue_Triangle.png""]","true","[[86,6],[41,217],[247,150]]","false",""
"visual-search-circle","203","2.2.0","1606397","79221","visual_search_trial","508","","j","","","","","","","","","","null","red_circle","10","[""images/Red_Circle.png"",""images/Red_Circle.png"",""images/Red_Circle.png""]","true","[[207,30],[2,101],[165,243]]","false",""
"visual-search-circle","204","2.2.0","1608455","79221","visual_search_trial","554","","j","","","","","","","","","","null","blue_triangle","10","[""images/Blue_Triangle.png"",""images/Blue_Triangle.png"",""images/Blue_Triangle.png"",""images/Blue_Triangle.png"",""images/Blue_Triangle.png"",""images/Blue_Triangle.png""]","true","[[9,171],[107,248],[223,201],[240,78],[142,1],[26,48]]","false",""
"visual-search-circle","205","2.2.0","1610874","79221","visual_search_trial","914","","f","","","","","","","","","","null","red_blue_mix","10","[""images/Red_Triangle.png"",""images/Blue_Triangle.png"",""images/Blue_Circle.png"",""images/Red_Circle.png"",""images/Blue_Circle.png"",""images/Blue_Triangle.png"",""images/Red_Circle.png"",""images/Blue_Triangle.png"",""images/Blue_Triangle.png""]","true","[[60,17],[6,84],[8,169],[64,234],[148,247],[222,203],[249,122],[219,42],[144,1]]","true",""
"visual-search-circle","206","2.2.0","1612831","79221","visual_search_trial","452","","j","","","","","","","","","","null","red_circle","10","[""images/Red_Circle.png"",""images/Red_Circle.png"",""images/Red_Circle.png"",""images/Red_Circle.png"",""images/Red_Circle.png"",""images/Red_Circle.png""]","true","[[220,44],[103,1],[7,82],[29,205],[146,248],[242,167]]","false",""
"visual-search-circle","207","2.2.0","1615461","79221","visual_search_trial","1127","","j","","","","","","","","","","null","red_blue_mix","10","[""images/Blue_Circle.png"",""images/Red_Circle.png"",""images/Blue_Triangle.png""]","true","[[9,76],[140,249],[224,49]]","false",""
"visual-search-circle","208","2.2.0","1617432","79221","visual_search_trial","466","","j","","","","","","","","","","null","blue_triangle","10","[""images/Blue_Triangle.png"",""images/Blue_Triangle.png"",""images/Blue_Triangle.png"",""images/Blue_Triangle.png"",""images/Blue_Triangle.png"",""images/Blue_Triangle.png"",""images/Blue_Triangle.png"",""images/Blue_Triangle.png"",""images/Blue_Triangle.png""]","true","[[177,11],[92,4],[22,53],[0,135],[36,213],[114,249],[196,227],[245,157],[238,72]]","false",""
"visual-search-circle","209","2.2.0","1619651","79221","visual_search_trial","714","","j","","","","","","","","","","null","red_blue_mix","10","[""images/Blue_Circle.png"",""images/Blue_Triangle.png"",""images/Red_Circle.png"",""images/Blue_Circle.png"",""images/Red_Circle.png"",""images/Blue_Triangle.png"",""images/Blue_Triangle.png"",""images/Blue_Triangle.png"",""images/Blue_Triangle.png""]","true","[[129,249],[208,217],[248,142],[231,58],[163,6],[78,9],[14,66],[2,150],[48,223]]","false",""
"visual-search-circle","210","2.2.0","1621675","79221","visual_search_trial","519","","f","","","","","","","","","","null","blue_triangle","10","[""images/Red_Triangle.png"",""images/Blue_Triangle.png"",""images/Blue_Triangle.png"",""images/Blue_Triangle.png"",""images/Blue_Triangle.png"",""images/Blue_Triangle.png"",""images/Blue_Triangle.png"",""images/Blue_Triangle.png"",""images/Blue_Triangle.png""]","true","[[96,246],[181,236],[240,173],[244,88],[193,20],[109,0],[33,39],[0,118],[25,200]]","true",""
"visual-search-circle","211","2.2.0","1624188","79221","visual_search_trial","1008","","f","","","","","","","","","","null","red_circle","10","[""images/Red_Triangle.png"",""images/Red_Circle.png"",""images/Red_Circle.png"",""images/Red_Circle.png"",""images/Red_Circle.png"",""images/Red_Circle.png"",""images/Red_Circle.png"",""images/Red_Circle.png"",""images/Red_Circle.png""]","true","[[135,249],[213,213],[249,135],[227,53],[157,4],[72,11],[11,72],[4,157],[53,227]]","true",""
"visual-search-circle","212","2.2.0","1626153","79221","visual_search_trial","461","","f","","","","","","","","","","null","red_blue_mix","10","[""images/Red_Triangle.png"",""images/Blue_Triangle.png"",""images/Blue_Triangle.png""]","true","[[25,200],[240,173],[109,0]]","true",""
"visual-search-circle","213","2.2.0","1628176","79221","visual_search_trial","517","","j","","","","","","","","","","null","red_circle","10","[""images/Red_Circle.png"",""images/Red_Circle.png"",""images/Red_Circle.png"",""images/Red_Circle.png"",""images/Red_Circle.png"",""images/Red_Circle.png"",""images/Red_Circle.png"",""images/Red_Circle.png"",""images/Red_Circle.png""]","true","[[116,0],[38,35],[0,111],[21,194],[90,245],[175,239],[237,179],[246,94],[198,23]]","false",""
"visual-search-circle","214","2.2.0","1630170","79221","visual_search_trial","490","","f","","","","","","","","","","null","blue_triangle","10","[""images/Red_Triangle.png"",""images/Blue_Triangle.png"",""images/Blue_Triangle.png""]","true","[[207,219],[165,6],[2,148]]","true",""
"visual-search-circle","215","2.2.0","1632767","79221","visual_search_trial","1094","","f","","","","","","","","","","null","red_circle","10","[""images/Red_Triangle.png"",""images/Red_Circle.png"",""images/Red_Circle.png"",""images/Red_Circle.png"",""images/Red_Circle.png"",""images/Red_Circle.png""]","true","[[249,120],[183,14],[58,18],[0,129],[66,235],[191,231]]","true",""
"visual-search-circle","216","2.2.0","1634750","79221","visual_search_trial","479","","f","","","","","","","","","","null","red_blue_mix","10","[""images/Red_Triangle.png"",""images/Red_Circle.png"",""images/Blue_Triangle.png"",""images/Red_Circle.png"",""images/Red_Circle.png"",""images/Blue_Triangle.png""]","true","[[9,78],[26,201],[142,248],[240,171],[223,48],[107,1]]","true",""
"visual-search-circle","217","2.2.0","1636706","79221","visual_search_trial","451","","f","","","","","","","","","","null","blue_triangle","10","[""images/Red_Triangle.png"",""images/Blue_Triangle.png"",""images/Blue_Triangle.png"",""images/Blue_Triangle.png"",""images/Blue_Triangle.png"",""images/Blue_Triangle.png""]","true","[[0,140],[76,240],[200,224],[249,109],[173,9],[49,25]]","true",""
"visual-search-circle","218","2.2.0","1638653","79221","visual_search_trial","443","","f","","","","","","","","","","null","blue_triangle","11","[""images/Blue_Triangle.png"",""images/Blue_Triangle.png"",""images/Blue_Triangle.png""]","false","[[0,133],[194,228],[179,12]]","false",""
"visual-search-circle","219","2.2.0","1640765","79221","visual_search_trial","609","","f","","","","","","","","","","null","red_blue_mix","11","[""images/Red_Triangle.png"",""images/Red_Circle.png"",""images/Blue_Triangle.png""]","true","[[25,200],[240,173],[109,0]]","true",""
"visual-search-circle","220","2.2.0","1642765","79221","visual_search_trial","496","","f","","","","","","","","","","null","blue_triangle","11","[""images/Red_Triangle.png"",""images/Blue_Triangle.png"",""images/Blue_Triangle.png"",""images/Blue_Triangle.png"",""images/Blue_Triangle.png"",""images/Blue_Triangle.png""]","true","[[84,6],[2,101],[42,219],[165,243],[247,148],[207,30]]","true",""
"visual-search-circle","221","2.2.0","1644727","79221","visual_search_trial","459","","j","","","","","","","","","","null","red_circle","11","[""images/Red_Triangle.png"",""images/Red_Circle.png"",""images/Red_Circle.png""]","false","[[238,72],[22,53],[114,249]]","true",""
"visual-search-circle","222","2.2.0","1646833","79221","visual_search_trial","603","","f","","","","","","","","","","null","blue_triangle","11","[""images/Red_Triangle.png"",""images/Blue_Triangle.png"",""images/Blue_Triangle.png""]","true","[[196,227],[177,11],[0,135]]","true",""
"visual-search-circle","223","2.2.0","1648835","79221","visual_search_trial","498","","j","","","","","","","","","","null","red_circle","11","[""images/Red_Circle.png"",""images/Red_Circle.png"",""images/Red_Circle.png"",""images/Red_Circle.png"",""images/Red_Circle.png"",""images/Red_Circle.png""]","true","[[203,222],[248,105],[169,8],[46,27],[1,144],[80,241]]","false",""
"visual-search-circle","224","2.2.0","1650898","79221","visual_search_trial","558","","j","","","","","","","","","","null","blue_triangle","11","[""images/Blue_Triangle.png"",""images/Blue_Triangle.png"",""images/Blue_Triangle.png"",""images/Blue_Triangle.png"",""images/Blue_Triangle.png"",""images/Blue_Triangle.png""]","true","[[193,20],[68,13],[0,118],[56,229],[181,236],[249,131]]","false",""
"visual-search-circle","225","2.2.0","1653052","79221","visual_search_trial","649","","f","","","","","","","","","","null","red_blue_mix","11","[""images/Red_Triangle.png"",""images/Blue_Circle.png"",""images/Blue_Triangle.png"",""images/Blue_Circle.png"",""images/Blue_Triangle.png"",""images/Red_Circle.png"",""images/Red_Circle.png"",""images/Red_Circle.png"",""images/Red_Circle.png""]","true","[[201,26],[120,0],[41,32],[1,107],[18,191],[86,243],[171,240],[235,183],[247,99]]","true",""
"visual-search-circle","226","2.2.0","1655166","79221","visual_search_trial","609","","f","","","","","","","","","","null","red_circle","11","[""images/Red_Triangle.png"",""images/Red_Circle.png"",""images/Red_Circle.png"",""images/Red_Circle.png"",""images/Red_Circle.png"",""images/Red_Circle.png"",""images/Red_Circle.png"",""images/Red_Circle.png"",""images/Red_Circle.png""]","true","[[189,232],[243,165],[241,80],[185,15],[101,2],[27,46],[0,127],[30,207],[105,248]]","true",""
"visual-search-circle","227","2.2.0","1657816","79221","visual_search_trial","1146","","j","","","","","","","","","","null","red_blue_mix","11","[""images/Red_Circle.png"",""images/Red_Circle.png"",""images/Red_Circle.png"",""images/Blue_Circle.png"",""images/Blue_Triangle.png"",""images/Blue_Circle.png""]","true","[[165,6],[42,30],[2,148],[84,243],[207,219],[247,101]]","false",""
"visual-search-circle","228","2.2.0","1659837","79221","visual_search_trial","516","","j","","","","","","","","","","null","blue_triangle","11","[""images/Blue_Triangle.png"",""images/Blue_Triangle.png"",""images/Blue_Triangle.png"",""images/Blue_Triangle.png"",""images/Blue_Triangle.png"",""images/Blue_Triangle.png"",""images/Blue_Triangle.png"",""images/Blue_Triangle.png"",""images/Blue_Triangle.png""]","true","[[68,13],[9,76],[5,161],[56,229],[140,249],[216,210],[249,131],[224,49],[153,3]]","false",""
"visual-search-circle","229","2.2.0","1661767","79221","visual_search_trial","426","","f","","","","","","","","","","null","red_blue_mix","11","[""images/Red_Triangle.png"",""images/Blue_Circle.png"",""images/Red_Circle.png"",""images/Blue_Circle.png"",""images/Blue_Circle.png"",""images/Blue_Circle.png""]","true","[[20,193],[131,249],[236,181],[229,56],[118,0],[13,68]]","true",""
"visual-search-circle","230","2.2.0","1663694","79221","visual_search_trial","421","","j","","","","","","","","","","null","red_circle","11","[""images/Red_Circle.png"",""images/Red_Circle.png"",""images/Red_Circle.png"",""images/Red_Circle.png"",""images/Red_Circle.png"",""images/Red_Circle.png"",""images/Red_Circle.png"",""images/Red_Circle.png"",""images/Red_Circle.png""]","true","[[142,248],[217,208],[249,129],[223,48],[150,2],[66,14],[9,78],[6,163],[58,231]]","false",""
"visual-search-circle","231","2.2.0","1665741","79221","visual_search_trial","542","","f","","","","","","","","","","null","blue_triangle","11","[""images/Red_Triangle.png"",""images/Blue_Triangle.png"",""images/Blue_Triangle.png"",""images/Blue_Triangle.png"",""images/Blue_Triangle.png"",""images/Blue_Triangle.png"",""images/Blue_Triangle.png"",""images/Blue_Triangle.png"",""images/Blue_Triangle.png""]","true","[[163,243],[231,191],[248,107],[208,32],[129,0],[48,26],[2,99],[14,183],[78,240]]","true",""
"visual-search-circle","232","2.2.0","1667678","79221","visual_search_trial","434","","j","","","","","","","","","","null","red_circle","11","[""images/Red_Circle.png"",""images/Red_Circle.png"",""images/Red_Circle.png""]","true","[[247,148],[84,6],[42,219]]","false",""
"visual-search-circle","233","2.2.0","1669816","79221","visual_search_trial","634","","j","","","","","","","","","","null","red_blue_mix","11","[""images/Red_Circle.png"",""images/Blue_Triangle.png"",""images/Blue_Triangle.png""]","true","[[1,107],[171,240],[201,26]]","false",""
"visual-search-circle","234","2.2.0","1671727","79221","visual_search_trial","407","","f","","","","","","","","","","null","red_circle","11","[""images/Red_Triangle.png"",""images/Red_Circle.png"",""images/Red_Circle.png"",""images/Red_Circle.png"",""images/Red_Circle.png"",""images/Red_Circle.png""]","true","[[35,211],[155,246],[245,159],[214,38],[94,3],[4,90]]","true",""
