"trial_type","trial_index","plugin_version","time_elapsed","sona_id","phase","rt","stimulus","response","consented","required_key","view_history","question_order","success","timeout","failed_images","failed_audio","failed_video","set_size","distractor_type","block","stimuli_list","correct","locations","target_present","break_key"
"pavlovia","0","null","958","78921","","","","","","","","","","","","","","","","","","","","",""
"html-button-response","1","2.1.0","117861","78921","informed_consent","116902","
    <div style=""max-width: 900px; margin: 0 auto; padding: 20px; text-align: left; line-height: 1.6;"">
      <h1 style=""text-align: center; color: #333; font-size: 24px; margin-bottom: 10px; font-weight: bold;"">
        INFORMED CONSENT INFORMATION
      </h1>
      <h2 style=""text-align: center; color: #333; font-size: 22px; margin-bottom: 20px; font-weight: bold;"">
        FOR RESEARCH PARTICIPATION
      </h2>
      
      <p style=""margin-bottom: 10px;""><strong>Study Title:</strong> The Effects of Mindfulness and Attention on Life Satisfaction and Memory</p>
      <p style=""margin-bottom: 10px;""><strong>Principal Investigator:</strong> Ella Bremmer</p>
      <p style=""margin-bottom: 10px;""><strong>Co-Principal Investigator:</strong> Dr. Gregory Cox</p>
      <p style=""margin-bottom: 20px;""><strong>IRB Study Number:</strong></p>

      <p style=""margin-bottom: 15px;"">I am a student at the University at Albany, in the Department of Psychology. I am planning to conduct a research study, which I invite you to take part in.</p>
      
      <p style=""margin-bottom: 25px;"">This form has important information about the reasons for doing this study, what we will ask you to do, and the way we would like to use the information we collect about you.</p>

      <h3 style=""color: #333; font-size: 18px; margin-top: 25px; margin-bottom: 10px; font-weight: bold;"">
        Why are you doing this study?
      </h3>
      <p style=""margin-bottom: 15px;"">You are being asked to participate in a research study that aims to understand if there is a relationship between mindfulness, the ability to pay attention, and life satisfaction.</p>
      
      <p style=""margin-bottom: 25px;"">The purpose of this study is to investigate if having better control over one's attention influences overall life satisfaction. Your participation will help us better understand if mindfulness and attention do have a significant effect on life satisfaction (i.e., how people feel about their lives overall). Then you will be asked to perform a conjunction visual search task to test your capacity to direct your attention over a sustained period.</p>

      <h3 style=""color: #333; font-size: 18px; margin-top: 25px; margin-bottom: 10px; font-weight: bold;"">
        Why am I eligible to participate in this study?
      </h3>
      <p style=""margin-bottom: 25px;"">You are eligible to participate because you are a student at UAlbany, are at least 18 years old, and are proficient in English.</p>

      <h3 style=""color: #333; font-size: 18px; margin-top: 25px; margin-bottom: 10px; font-weight: bold;"">
        What will I do if I choose to be in this study?
      </h3>
      <p style=""margin-bottom: 10px;"">If you choose to take part in our study, you will do the following:</p>
      <p style=""margin-bottom: 8px; margin-left: 20px;"">1. Read and agree to the informed consent.</p>
      <p style=""margin-bottom: 8px; margin-left: 40px;"">a. If you choose not to agree to the informed consent, you will be taken back to the SONA site.</p>
      <p style=""margin-bottom: 8px; margin-left: 20px;"">2. Complete a demographic questionnaire that asks about your age, English proficiency, gender, and race.</p>
      <p style=""margin-bottom: 8px; margin-left: 20px;"">3. Read instructions for the visual search task, which asks you to indicate if a target (a red triangle) is present among various other colored shapes. You should press the ""F"" key if a red triangle is present, or the ""J"" key if the target is absent.</p>
      <p style=""margin-bottom: 8px; margin-left: 20px;"">4. You will be asked to respond to 270 visual search trials, whith the opportunity to take short breaks as you go</p>
      <p style=""margin-bottom: 8px; margin-left: 20px;"">5. You will complete the Mindfulness Attention Awareness Scale (MAAS), the Satisfaction With Life Scale (SWLS), and the Big Five Inventory.</p>
      <p style=""margin-bottom: 25px; margin-left: 20px;"">6.	After all questionnaires are completed, participants will be thanked for their time and will be provided the study debriefing. Following the debriefing, you will be sent back to the SONA research site.</p>

      <h3 style=""color: #333; font-size: 18px; margin-top: 25px; margin-bottom: 10px; font-weight: bold;"">
        For how long will I participate?
      </h3>
      <p style=""margin-bottom: 25px;"">This study is a single online session that you can complete on a computer. The study can be completed in less than 30 minutes but could require as long as 45 minutes to complete.</p>

      <h3 style=""color: #333; font-size: 18px; margin-top: 25px; margin-bottom: 10px; font-weight: bold;"">
        Where will I need to go to participate?
      </h3>
      <p style=""margin-bottom: 25px;"">All study procedures will take place online and can be completed wherever you have internet connection.</p>

      <h3 style=""color: #333; font-size: 18px; margin-top: 25px; margin-bottom: 10px; font-weight: bold;"">
        Are there any costs I should be aware of?
      </h3>
      <p style=""margin-bottom: 25px;"">Participation is not expected to incur cost to participants. Free internet access is available anywhere on campus and in the university library.</p>

      <h3 style=""color: #333; font-size: 18px; margin-top: 25px; margin-bottom: 10px; font-weight: bold;"">
        What are the possible risks or discomforts?
      </h3>
      <p style=""margin-bottom: 15px;"">As with all research, there is a chance that confidentiality of the information we collect from you could be breached – we will take steps to minimize this risk, as discussed in more detail below.</p>
      
      <p style=""margin-bottom: 25px;"">The risks associated with participating in this study are minimal; however, you may experience mild discomfort when reflecting on your mindfulness or life satisfaction when answering questionnaires in the study. To help minimize this, you can withdraw from the study at any time without any consequences. The study will take place online, and you will have the opportunity to take breaks while completing the survey to reduce the risk of eye strain associated with the use of electronic devices.</p>

      <h3 style=""color: #333; font-size: 18px; margin-top: 25px; margin-bottom: 10px; font-weight: bold;"">
        What are the possible benefits for me or others?
      </h3>
      <p style=""margin-bottom: 25px;"">While there are no direct personal benefits to participants of this study, you may find value in reflecting on your mindfulness, attention, and its impact on life satisfaction by completing this survey. The data you contribute may help advance society's understanding of how mindfulness and attention relate to overall well-being, potentially informing future programs or interventions aimed at improving student mental health, attention, and life satisfaction.</p>

      <h3 style=""color: #333; font-size: 18px; margin-top: 25px; margin-bottom: 10px; font-weight: bold;"">
        Will I receive compensation for my participation?
      </h3>
      <p style=""margin-bottom: 25px;"">SONA partial class credit will be awarded via the Psychology Department SONA research pool after you complete the survey in its entirety. Participants who withdraw before completing the survey will not receive partial credit. You will not receive monetary compensation for your participation in this study.</p>

      <h3 style=""color: #333; font-size: 18px; margin-top: 25px; margin-bottom: 10px; font-weight: bold;"">
        How will you protect the information you collect about me, and how will that information be shared?
      </h3>
      <p style=""margin-bottom: 15px;"">Results of this study may be used in publications and presentations. Your data will be handled as confidentially as possible, and no identifiable information will be collected to link your data back to you. If results of this study are published or presented, only de-identified summaries of data will be used.</p>
      
      <p style=""margin-bottom: 25px;"">To minimize the risks to confidentiality, all data will be collected anonymously via Pavlovia.org which uses encryption to protect information (https://pavlovia.org/docs/home/ethics). Only the student researcher (Ella Bremmer), mentor (Pierce Johnson), and faculty advisor (Gregory Cox) will have password-protected access to the data. Data will be stored on secure, university approved computers.</p>

      <h3 style=""color: #333; font-size: 18px; margin-top: 25px; margin-bottom: 10px; font-weight: bold;"">
        Will my data be used in future research?
      </h3>
      <p style=""margin-bottom: 25px;"">No personal identifiers will be collected in the data you provide us. Data will not be used in future research, and will be deleted after the required retention period.</p>

      <h3 style=""color: #333; font-size: 18px; margin-top: 25px; margin-bottom: 10px; font-weight: bold;"">
        What are my rights as a research participant?
      </h3>
      <p style=""margin-bottom: 15px;"">Participation in this study is voluntary. You do not have to answer any question you do not want to answer. If at any time and for any reason, you would prefer not to participate in this study, please feel free not to. If at any time you would like to stop participating, you are welcome to stop. You can take a break or stop altogether. You may withdraw from this study at any time, and you will not be penalized in any way for deciding to stop participation.</p>
      
      <p style=""margin-bottom: 25px;"">If you decide to withdraw from this study, any information collected from you before withdrawing will not be used, and your data will be deleted.</p>

      <h3 style=""color: #333; font-size: 18px; margin-top: 25px; margin-bottom: 10px; font-weight: bold;"">
        What if I am a University at Albany student or employee?
      </h3>
      <p style=""margin-bottom: 25px;"">You may choose not to participate or to stop participating in this research at any time. This will not affect your class standing, grades, employment, or any other aspects of your relationship with the University at Albany.</p>

      <h3 style=""color: #333; font-size: 18px; margin-top: 25px; margin-bottom: 10px; font-weight: bold;"">
        Who can I contact if I have questions or concerns about this research study?
      </h3>
      <p style=""margin-bottom: 15px;"">If you have questions, please feel free to stop and email the investigator, Ella Bremmer (ebremmer@albany.edu) or advisors, Pierce Johnson (pjohnson4@albany.edu) and Dr. Greg Cox (gecox@albany.edu). If you have questions later, you may also contact the researchers.</p>
      
      <p style=""margin-bottom: 10px;"">If you have any questions about your rights as a participant in this research, you can contact the following office at the University at Albany:</p>
      
      <p style=""margin-bottom: 5px; margin-left: 20px;"">Institutional Review Board</p>
      <p style=""margin-bottom: 5px; margin-left: 20px;"">University at Albany</p>
      <p style=""margin-bottom: 5px; margin-left: 20px;"">Office of Regulatory and Research Compliance</p>
      <p style=""margin-bottom: 5px; margin-left: 20px;"">1400 Washington Ave, Biology 227</p>
      <p style=""margin-bottom: 5px; margin-left: 20px;"">Albany, NY 12222</p>
      <p style=""margin-bottom: 5px; margin-left: 20px;"">Phone: 1-866-857-5459</p>
      <p style=""margin-bottom: 25px; margin-left: 20px;"">Email: rco@albany.edu</p>

      <h3 style=""color: #333; font-size: 18px; margin-top: 30px; margin-bottom: 10px; font-weight: bold;"">
        Consent
      </h3>
      <p style=""margin-bottom: 20px;"">I have read this form and the research study has been explained to me. I have been given the opportunity to ask questions and my questions have been answered. If I have additional questions, I have been told whom to contact. I agree to participate in the research study described above. I understand that I have the opportunity to download and save a copy of this form for my records.</p>

      <div style=""background-color: #f9f9f9; border: 2px solid #4CAF50; border-radius: 5px; padding: 20px; margin-top: 20px; margin-bottom: 20px;"">
        <p style=""margin-bottom: 15px; font-weight: bold;"">To save a copy of this consent form for your records, press Ctrl+P (Windows/Linux) or Cmd+P (Mac) and select ""Save as PDF"".</p>
        <p style=""margin-bottom: 0; font-weight: bold;"">By clicking ""I Agree"" below, I confirm that I agree to participate in the research study described above, and that doing so serves as my written signature consenting to take part in the study.</p>
      </div>
    </div>
  ","0","true","","","","","","","","","","","","","","","",""
"instructions","3","2.1.0","122267","78921","intro_instructions","4405","","","","j","[{""page_index"":0,""viewing_time"":4405}]","","","","","","","","","","","","","",""
"html-keyboard-response","4","2.1.0","124268","78921","intermediate_slide_demo","null","<p style=""font-size:4vw"">Demographic Questionnaire</p>","null","","","","","","","","","","","","","","","","",""
"survey-multi-choice","5","2.1.0","133909","78921","demographics_english","9640","","{""english"":""Strongly agree""}","","","","[0]","","","","","","","","","","","","",""
"survey-text","7","2.1.0","139800","78921","demographics_age","5889","","{""age"":""18""}","","","","","","","","","","","","","","","","",""
"survey-multi-select","9","2.1.0","145115","78921","demographics_gender","5313","","{""gender"":[""Man""]}","","","","[0]","","","","","","","","","","","","",""
"survey-multi-choice","11","2.1.0","153103","78921","demographics_race","7988","","{""race"":""Black or African American""}","","","","[0]","","","","","","","","","","","","",""
"html-keyboard-response","12","2.1.0","155104","78921","intermediate_slide_VS","null","<p style=""font-size:4vw"">Visual Search Task</p>","null","","","","","","","","","","","","","","","","",""
"preload","13","2.1.0","155284","78921","image_preload","","","","","","","","true","false","[]","[]","[]","","","","","","","",""
"html-button-response","14","2.1.0","172241","78921","vs_instructions","16957","<p>On the following screens, you will see a series of colored shapes (triangles, squares, and circles) appear.</p>
    <p>Please Press 'F' if there <strong>is</strong> a red triangle among the shapes you see.</p>
    <p>Press 'J' if there is <strong>not</strong> a red triangle among the shapes you see.</p>","0","","","","","","","","","","","","","","","","",""
"visual-search-circle","15","2.2.0","177028","78921","visual_search_trial","3279","","j","","","","","","","","","","null","red_circle","0","[""images/Red_Circle.png"",""images/Red_Circle.png"",""images/Red_Circle.png"",""images/Red_Circle.png"",""images/Red_Circle.png"",""images/Red_Circle.png""]","true","[[9,76],[25,200],[140,249],[240,173],[224,49],[109,0]]","false",""
"visual-search-circle","16","2.2.0","180487","78921","visual_search_trial","1947","","f","","","","","","","","","","null","red_blue_mix","0","[""images/Red_Triangle.png"",""images/Blue_Triangle.png"",""images/Blue_Triangle.png"",""images/Blue_Triangle.png"",""images/Blue_Triangle.png"",""images/Blue_Circle.png""]","true","[[222,46],[105,1],[8,80],[27,203],[144,248],[241,169]]","true",""
"visual-search-circle","17","2.2.0","182984","78921","visual_search_trial","980","","j","","","","","","","","","","null","red_circle","0","[""images/Red_Circle.png"",""images/Red_Circle.png"",""images/Red_Circle.png"",""images/Red_Circle.png"",""images/Red_Circle.png"",""images/Red_Circle.png"",""images/Red_Circle.png"",""images/Red_Circle.png"",""images/Red_Circle.png""]","true","[[68,236],[153,246],[224,200],[249,118],[216,39],[140,0],[56,20],[5,88],[9,173]]","false",""
"visual-search-circle","18","2.2.0","185460","78921","visual_search_trial","974","","f","","","","","","","","","","null","blue_triangle","0","[""images/Red_Triangle.png"",""images/Blue_Triangle.png"",""images/Blue_Triangle.png""]","true","[[189,232],[185,15],[0,127]]","true",""
"visual-search-circle","19","2.2.0","188182","78921","visual_search_trial","1217","","j","","","","","","","","","","null","red_blue_mix","0","[""images/Red_Circle.png"",""images/Blue_Circle.png"",""images/Red_Circle.png""]","true","[[114,0],[22,196],[238,177]]","false",""
"visual-search-circle","20","2.2.0","191215","78921","visual_search_trial","1518","","j","","","","","","","","","","null","blue_triangle","0","[""images/Blue_Triangle.png"",""images/Blue_Triangle.png"",""images/Blue_Triangle.png"",""images/Blue_Triangle.png"",""images/Blue_Triangle.png"",""images/Blue_Triangle.png""]","true","[[224,49],[109,0],[9,76],[25,200],[140,249],[240,173]]","false",""
"visual-search-circle","21","2.2.0","194194","78921","visual_search_trial","1468","","j","","","","","","","","","","null","red_blue_mix","0","[""images/Blue_Circle.png"",""images/Blue_Circle.png"",""images/Red_Circle.png"",""images/Blue_Triangle.png"",""images/Blue_Circle.png"",""images/Blue_Circle.png"",""images/Blue_Circle.png"",""images/Red_Circle.png"",""images/Blue_Circle.png""]","true","[[248,105],[207,30],[127,0],[46,27],[2,101],[15,185],[80,241],[165,243],[232,189]]","false",""
"visual-search-circle","22","2.2.0","196577","78921","visual_search_trial","876","","j","","","","","","","","","","null","blue_triangle","0","[""images/Blue_Triangle.png"",""images/Blue_Triangle.png"",""images/Blue_Triangle.png""]","true","[[224,200],[140,0],[9,173]]","false",""
"visual-search-circle","23","2.2.0","198958","78921","visual_search_trial","868","","f","","","","","","","","","","null","red_circle","0","[""images/Red_Triangle.png"",""images/Red_Circle.png"",""images/Red_Circle.png"",""images/Red_Circle.png"",""images/Red_Circle.png"",""images/Red_Circle.png""]","true","[[159,4],[38,35],[3,155],[90,245],[211,214],[246,94]]","true",""
"visual-search-circle","24","2.2.0","201829","78921","visual_search_trial","1366","","j","","","","","","","","","","null","red_blue_mix","0","[""images/Red_Circle.png"",""images/Blue_Triangle.png"",""images/Blue_Circle.png"",""images/Blue_Circle.png"",""images/Red_Circle.png"",""images/Red_Circle.png""]","true","[[44,220],[167,242],[248,146],[205,29],[82,7],[1,103]]","false",""
"visual-search-circle","25","2.2.0","204249","78921","visual_search_trial","912","","j","","","","","","","","","","null","red_circle","0","[""images/Red_Circle.png"",""images/Red_Circle.png"",""images/Red_Circle.png""]","true","[[64,234],[249,122],[60,17]]","false",""
"visual-search-circle","26","2.2.0","206558","78921","visual_search_trial","799","","f","","","","","","","","","","null","red_blue_mix","0","[""images/Red_Triangle.png"",""images/Blue_Triangle.png"",""images/Blue_Circle.png"",""images/Blue_Triangle.png"",""images/Blue_Circle.png"",""images/Blue_Circle.png"",""images/Blue_Triangle.png"",""images/Blue_Circle.png"",""images/Blue_Triangle.png""]","true","[[238,177],[245,92],[196,22],[114,0],[36,36],[0,114],[22,196],[92,245],[177,238]]","true",""
"visual-search-circle","27","2.2.0","208727","78921","visual_search_trial","657","","j","","","","","","","","","","null","blue_triangle","0","[""images/Blue_Triangle.png"",""images/Blue_Triangle.png"",""images/Blue_Triangle.png"",""images/Blue_Triangle.png"",""images/Blue_Triangle.png"",""images/Blue_Triangle.png"",""images/Blue_Triangle.png"",""images/Blue_Triangle.png"",""images/Blue_Triangle.png""]","true","[[205,29],[125,0],[44,29],[1,103],[16,187],[82,242],[167,242],[233,187],[248,103]]","false",""
"visual-search-circle","28","2.2.0","210735","78921","visual_search_trial","499","","f","","","","","","","","","","null","red_circle","0","[""images/Red_Triangle.png"",""images/Red_Circle.png"",""images/Red_Circle.png""]","true","[[138,0],[10,175],[226,198]]","true",""
"visual-search-circle","29","2.2.0","212778","78921","visual_search_trial","520","","f","","","","","","","","","","null","red_blue_mix","0","[""images/Red_Triangle.png"",""images/Blue_Triangle.png"",""images/Red_Circle.png""]","true","[[58,18],[66,235],[249,120]]","true",""
"visual-search-circle","30","2.2.0","214901","78921","visual_search_trial","588","","f","","","","","","","","","","null","blue_triangle","0","[""images/Red_Triangle.png"",""images/Blue_Triangle.png"",""images/Blue_Triangle.png"",""images/Blue_Triangle.png"",""images/Blue_Triangle.png"",""images/Blue_Triangle.png"",""images/Blue_Triangle.png"",""images/Blue_Triangle.png"",""images/Blue_Triangle.png""]","true","[[4,90],[10,175],[70,237],[155,246],[226,198],[249,116],[214,38],[138,0],[55,21]]","true",""
"visual-search-circle","31","2.2.0","217122","78921","visual_search_trial","709","","f","","","","","","","","","","null","red_circle","0","[""images/Red_Triangle.png"",""images/Red_Circle.png"",""images/Red_Circle.png"",""images/Red_Circle.png"",""images/Red_Circle.png"",""images/Red_Circle.png"",""images/Red_Circle.png"",""images/Red_Circle.png"",""images/Red_Circle.png""]","true","[[32,208],[107,248],[191,231],[243,163],[240,78],[183,14],[99,2],[26,48],[0,129]]","true",""
"visual-search-circle","32","2.2.0","219776","78921","visual_search_trial","1145","","f","","","","","","","","","","null","blue_triangle","0","[""images/Red_Triangle.png"",""images/Blue_Triangle.png"",""images/Blue_Triangle.png"",""images/Blue_Triangle.png"",""images/Blue_Triangle.png"",""images/Blue_Triangle.png""]","true","[[109,0],[9,76],[25,200],[140,249],[240,173],[224,49]]","true",""
"visual-search-circle","33","2.2.0","250918","78921","visual_search_trial","29632","","j","","","","","","","","","","null","blue_triangle","1","[""images/Blue_Triangle.png"",""images/Blue_Triangle.png"",""images/Blue_Triangle.png"",""images/Blue_Triangle.png"",""images/Blue_Triangle.png"",""images/Blue_Triangle.png""]","true","[[159,4],[38,35],[3,155],[90,245],[211,214],[246,94]]","false",""
"visual-search-circle","34","2.2.0","255058","78921","visual_search_trial","2629","","f","","","","","","","","","","null","red_circle","1","[""images/Red_Triangle.png"",""images/Red_Circle.png"",""images/Red_Circle.png""]","true","[[198,23],[0,111],[175,239]]","true",""
"visual-search-circle","35","2.2.0","257382","78921","visual_search_trial","814","","f","","","","","","","","","","null","red_blue_mix","1","[""images/Red_Triangle.png"",""images/Blue_Triangle.png"",""images/Blue_Triangle.png"",""images/Red_Circle.png"",""images/Blue_Circle.png"",""images/Red_Circle.png""]","true","[[169,241],[248,144],[203,27],[80,8],[1,105],[46,222]]","true",""
"visual-search-circle","36","2.2.0","262271","78921","visual_search_trial","3379","","j","","","","","","","","","","null","red_circle","1","[""images/Red_Circle.png"",""images/Red_Circle.png"",""images/Red_Circle.png"",""images/Red_Circle.png"",""images/Red_Circle.png"",""images/Red_Circle.png"",""images/Red_Circle.png"",""images/Red_Circle.png"",""images/Red_Circle.png""]","true","[[30,42],[0,122],[27,203],[101,247],[185,234],[241,169],[243,84],[189,17],[105,1]]","false",""
"visual-search-circle","37","2.2.0","268984","78921","visual_search_trial","5201","","j","","","","","","","","","","null","red_blue_mix","1","[""images/Red_Circle.png"",""images/Red_Circle.png"",""images/Red_Circle.png"",""images/Red_Circle.png"",""images/Red_Circle.png"",""images/Blue_Circle.png""]","true","[[84,6],[2,101],[42,219],[165,243],[247,148],[207,30]]","false",""
"visual-search-circle","38","2.2.0","271558","78921","visual_search_trial","1060","","j","","","","","","","","","","null","red_circle","1","[""images/Red_Circle.png"",""images/Red_Circle.png"",""images/Red_Circle.png"",""images/Red_Circle.png"",""images/Red_Circle.png"",""images/Red_Circle.png""]","true","[[179,12],[55,21],[0,133],[70,237],[194,228],[249,116]]","false",""
"visual-search-circle","39","2.2.0","274540","78921","visual_search_trial","1467","","j","","","","","","","","","","null","blue_triangle","1","[""images/Blue_Triangle.png"",""images/Blue_Triangle.png"",""images/Blue_Triangle.png""]","true","[[177,238],[196,22],[0,114]]","false",""
"visual-search-circle","40","2.2.0","276611","78921","visual_search_trial","563","","f","","","","","","","","","","null","red_circle","1","[""images/Red_Triangle.png"",""images/Red_Circle.png"",""images/Red_Circle.png"",""images/Red_Circle.png"",""images/Red_Circle.png"",""images/Red_Circle.png""]","true","[[240,173],[224,49],[109,0],[9,76],[25,200],[140,249]]","true",""
"visual-search-circle","41","2.2.0","278832","78921","visual_search_trial","707","","j","","","","","","","","","","null","blue_triangle","1","[""images/Blue_Triangle.png"",""images/Blue_Triangle.png"",""images/Blue_Triangle.png"",""images/Blue_Triangle.png"",""images/Blue_Triangle.png"",""images/Blue_Triangle.png"",""images/Blue_Triangle.png"",""images/Blue_Triangle.png"",""images/Blue_Triangle.png""]","true","[[0,125],[29,205],[103,248],[187,233],[242,167],[242,82],[187,16],[103,1],[29,44]]","false",""
"visual-search-circle","42","2.2.0","281447","78921","visual_search_trial","1108","","f","","","","","","","","","","null","red_blue_mix","1","[""images/Red_Triangle.png"",""images/Blue_Triangle.png"",""images/Blue_Triangle.png""]","true","[[111,0],[23,198],[239,175]]","true",""
"visual-search-circle","43","2.2.0","283556","78921","visual_search_trial","594","","f","","","","","","","","","","null","red_circle","1","[""images/Red_Triangle.png"",""images/Red_Circle.png"",""images/Red_Circle.png"",""images/Red_Circle.png"",""images/Red_Circle.png"",""images/Red_Circle.png"",""images/Red_Circle.png"",""images/Red_Circle.png"",""images/Red_Circle.png""]","true","[[22,196],[92,245],[177,238],[238,177],[245,92],[196,22],[114,0],[36,36],[0,114]]","true",""
"visual-search-circle","44","2.2.0","285772","78921","visual_search_trial","711","","f","","","","","","","","","","null","blue_triangle","1","[""images/Red_Triangle.png"",""images/Blue_Triangle.png"",""images/Blue_Triangle.png""]","true","[[3,155],[211,214],[159,4]]","true",""
"visual-search-circle","45","2.2.0","288502","78921","visual_search_trial","1228","","j","","","","","","","","","","null","red_blue_mix","1","[""images/Red_Circle.png"",""images/Blue_Circle.png"",""images/Blue_Triangle.png""]","true","[[0,109],[173,240],[200,25]]","false",""
"visual-search-circle","46","2.2.0","290620","78921","visual_search_trial","616","","f","","","","","","","","","","null","blue_triangle","1","[""images/Red_Triangle.png"",""images/Blue_Triangle.png"",""images/Blue_Triangle.png"",""images/Blue_Triangle.png"",""images/Blue_Triangle.png"",""images/Blue_Triangle.png""]","true","[[0,140],[76,240],[200,224],[249,109],[173,9],[49,25]]","true",""
"visual-search-circle","47","2.2.0","293655","78921","visual_search_trial","1531","","f","","","","","","","","","","null","red_blue_mix","1","[""images/Red_Triangle.png"",""images/Blue_Triangle.png"",""images/Red_Circle.png"",""images/Blue_Triangle.png"",""images/Blue_Triangle.png"",""images/Blue_Triangle.png"",""images/Blue_Triangle.png"",""images/Blue_Triangle.png"",""images/Blue_Circle.png""]","true","[[49,224],[131,249],[210,216],[249,140],[229,56],[161,5],[76,9],[13,68],[3,153]]","true",""
"visual-search-circle","48","2.2.0","297595","78921","visual_search_trial","2433","","j","","","","","","","","","","null","red_circle","1","[""images/Red_Circle.png"",""images/Red_Circle.png"",""images/Red_Circle.png""]","true","[[111,249],[239,74],[23,51]]","false",""
"visual-search-circle","49","2.2.0","299704","78921","visual_search_trial","599","","f","","","","","","","","","","null","blue_triangle","1","[""images/Red_Triangle.png"",""images/Blue_Triangle.png"",""images/Blue_Triangle.png"",""images/Blue_Triangle.png"",""images/Blue_Triangle.png"",""images/Blue_Triangle.png"",""images/Blue_Triangle.png"",""images/Blue_Triangle.png"",""images/Blue_Triangle.png""]","true","[[249,109],[210,33],[131,0],[49,25],[3,96],[13,181],[76,240],[161,244],[229,193]]","true",""
"visual-search-circle","50","2.2.0","302572","78921","visual_search_trial","1359","","j","","","","","","","","","","null","red_blue_mix","1","[""images/Blue_Circle.png"",""images/Blue_Triangle.png"",""images/Red_Circle.png"",""images/Blue_Triangle.png"",""images/Blue_Triangle.png"",""images/Red_Circle.png"",""images/Blue_Triangle.png"",""images/Blue_Triangle.png"",""images/Red_Circle.png""]","true","[[12,179],[74,239],[159,245],[228,194],[249,111],[211,35],[133,0],[51,23],[3,94]]","false",""
"html-keyboard-response","51","2.1.0","310402","78921","break","7830","<p>Great job so far! Please rest for a few seconds before continuing.</p>
                 <p>Press the <strong>H</strong> key on your keyboard to continue.</p>","h","","","","","","","","","","","","","","","","","H"
"visual-search-circle","52","2.2.0","314089","78921","visual_search_trial","2177","","f","","","","","","","","","","null","red_blue_mix","2","[""images/Red_Triangle.png"",""images/Red_Circle.png"",""images/Blue_Circle.png""]","true","[[247,101],[42,30],[84,243]]","true",""
"visual-search-circle","53","2.2.0","316755","78921","visual_search_trial","1163","","j","","","","","","","","","","null","blue_triangle","2","[""images/Blue_Triangle.png"",""images/Blue_Triangle.png"",""images/Blue_Triangle.png""]","true","[[2,101],[165,243],[207,30]]","false",""
"visual-search-circle","54","2.2.0","319530","78921","visual_search_trial","1271","","j","","","","","","","","","","null","red_blue_mix","2","[""images/Blue_Triangle.png"",""images/Blue_Circle.png"",""images/Blue_Triangle.png""]","true","[[58,18],[66,235],[249,120]]","false",""
"visual-search-circle","55","2.2.0","321661","78921","visual_search_trial","620","","j","","","","","","","","","","null","red_circle","2","[""images/Red_Circle.png"",""images/Red_Circle.png"",""images/Red_Circle.png"",""images/Red_Circle.png"",""images/Red_Circle.png"",""images/Red_Circle.png""]","true","[[198,226],[249,111],[175,10],[51,23],[0,138],[74,239]]","false",""
"visual-search-circle","56","2.2.0","324245","78921","visual_search_trial","1070","","f","","","","","","","","","","null","red_blue_mix","2","[""images/Red_Triangle.png"",""images/Red_Circle.png"",""images/Red_Circle.png"",""images/Blue_Triangle.png"",""images/Red_Circle.png"",""images/Blue_Circle.png""]","true","[[243,86],[150,2],[32,41],[6,163],[99,247],[217,208]]","true",""
"visual-search-circle","57","2.2.0","326729","78921","visual_search_trial","979","","j","","","","","","","","","","null","red_circle","2","[""images/Red_Circle.png"",""images/Red_Circle.png"",""images/Red_Circle.png""]","true","[[213,213],[157,4],[4,157]]","false",""
"visual-search-circle","58","2.2.0","331237","78921","visual_search_trial","3001","","f","","","","","","","","","","null","blue_triangle","2","[""images/Red_Triangle.png"",""images/Blue_Triangle.png"",""images/Blue_Triangle.png""]","true","[[88,5],[39,216],[246,153]]","true",""
"visual-search-circle","59","2.2.0","334374","78921","visual_search_trial","1623","","f","","","","","","","","","","null","red_blue_mix","2","[""images/Red_Triangle.png"",""images/Blue_Triangle.png"",""images/Blue_Circle.png"",""images/Red_Circle.png"",""images/Blue_Circle.png"",""images/Blue_Circle.png"",""images/Red_Circle.png"",""images/Blue_Triangle.png"",""images/Red_Circle.png""]","true","[[234,64],[169,8],[84,6],[17,60],[1,144],[42,219],[122,249],[203,222],[247,148]]","true",""
"visual-search-circle","60","2.2.0","339722","78921","visual_search_trial","3839","","f","","","","","","","","","","null","red_circle","2","[""images/Red_Triangle.png"",""images/Red_Circle.png"",""images/Red_Circle.png""]","true","[[32,41],[99,247],[243,86]]","true",""
"visual-search-circle","61","2.2.0","342516","78921","visual_search_trial","1288","","j","","","","","","","","","","null","red_blue_mix","2","[""images/Red_Circle.png"",""images/Blue_Triangle.png"",""images/Red_Circle.png"",""images/Blue_Triangle.png"",""images/Blue_Triangle.png"",""images/Blue_Triangle.png"",""images/Blue_Triangle.png"",""images/Blue_Circle.png"",""images/Blue_Circle.png""]","true","[[46,222],[127,249],[207,219],[248,144],[232,60],[165,6],[80,8],[15,64],[2,148]]","false",""
"visual-search-circle","62","2.2.0","344603","78921","visual_search_trial","571","","j","","","","","","","","","","null","blue_triangle","2","[""images/Blue_Triangle.png"",""images/Blue_Triangle.png"",""images/Blue_Triangle.png"",""images/Blue_Triangle.png"",""images/Blue_Triangle.png"",""images/Blue_Triangle.png"",""images/Blue_Triangle.png"",""images/Blue_Triangle.png"",""images/Blue_Triangle.png""]","true","[[60,232],[144,248],[219,207],[249,127],[222,46],[148,2],[64,15],[8,80],[6,165]]","false",""
"visual-search-circle","63","2.2.0","346663","78921","visual_search_trial","554","","j","","","","","","","","","","null","red_circle","2","[""images/Red_Circle.png"",""images/Red_Circle.png"",""images/Red_Circle.png"",""images/Red_Circle.png"",""images/Red_Circle.png"",""images/Red_Circle.png"",""images/Red_Circle.png"",""images/Red_Circle.png"",""images/Red_Circle.png""]","true","[[153,3],[68,13],[9,76],[5,161],[56,229],[140,249],[216,210],[249,131],[224,49]]","false",""
"visual-search-circle","64","2.2.0","348823","78921","visual_search_trial","659","","f","","","","","","","","","","null","blue_triangle","2","[""images/Red_Triangle.png"",""images/Blue_Triangle.png"",""images/Blue_Triangle.png"",""images/Blue_Triangle.png"",""images/Blue_Triangle.png"",""images/Blue_Triangle.png""]","true","[[118,0],[13,68],[20,193],[131,249],[236,181],[229,56]]","true",""
"visual-search-circle","65","2.2.0","351036","78921","visual_search_trial","708","","j","","","","","","","","","","null","red_blue_mix","2","[""images/Blue_Triangle.png"",""images/Blue_Triangle.png"",""images/Blue_Triangle.png"",""images/Blue_Triangle.png"",""images/Blue_Circle.png"",""images/Red_Circle.png""]","true","[[196,22],[72,11],[0,114],[53,227],[177,238],[249,135]]","false",""
"visual-search-circle","66","2.2.0","353478","78921","visual_search_trial","931","","f","","","","","","","","","","null","red_circle","2","[""images/Red_Triangle.png"",""images/Red_Circle.png"",""images/Red_Circle.png"",""images/Red_Circle.png"",""images/Red_Circle.png"",""images/Red_Circle.png""]","true","[[58,231],[183,235],[249,129],[191,18],[66,14],[0,120]]","true",""
"visual-search-circle","67","2.2.0","355661","78921","visual_search_trial","677","","j","","","","","","","","","","null","blue_triangle","2","[""images/Blue_Triangle.png"",""images/Blue_Triangle.png"",""images/Blue_Triangle.png"",""images/Blue_Triangle.png"",""images/Blue_Triangle.png"",""images/Blue_Triangle.png""]","true","[[94,246],[214,211],[245,90],[155,3],[35,38],[4,159]]","false",""
"visual-search-circle","68","2.2.0","357839","78921","visual_search_trial","668","","f","","","","","","","","","","null","red_circle","2","[""images/Red_Triangle.png"",""images/Red_Circle.png"",""images/Red_Circle.png"",""images/Red_Circle.png"",""images/Red_Circle.png"",""images/Red_Circle.png"",""images/Red_Circle.png"",""images/Red_Circle.png"",""images/Red_Circle.png""]","true","[[243,165],[241,80],[185,15],[101,2],[27,46],[0,127],[30,207],[105,248],[189,232]]","true",""
"visual-search-circle","69","2.2.0","360041","78921","visual_search_trial","688","","f","","","","","","","","","","null","blue_triangle","2","[""images/Red_Triangle.png"",""images/Blue_Triangle.png"",""images/Blue_Triangle.png"",""images/Blue_Triangle.png"",""images/Blue_Triangle.png"",""images/Blue_Triangle.png"",""images/Blue_Triangle.png"",""images/Blue_Triangle.png"",""images/Blue_Triangle.png""]","true","[[222,46],[148,2],[64,15],[8,80],[6,165],[60,232],[144,248],[219,207],[249,127]]","true",""
"visual-search-circle","70","2.2.0","363722","78921","visual_search_trial","2169","","j","","","","","","","","","","null","blue_triangle","3","[""images/Blue_Triangle.png"",""images/Blue_Triangle.png"",""images/Blue_Triangle.png"",""images/Blue_Triangle.png"",""images/Blue_Triangle.png"",""images/Blue_Triangle.png"",""images/Blue_Triangle.png"",""images/Blue_Triangle.png"",""images/Blue_Triangle.png""]","true","[[210,216],[249,140],[229,56],[161,5],[76,9],[13,68],[3,153],[49,224],[131,249]]","false",""
"visual-search-circle","71","2.2.0","366019","78921","visual_search_trial","785","","j","","","","","","","","","","null","red_blue_mix","3","[""images/Blue_Triangle.png"",""images/Red_Circle.png"",""images/Blue_Triangle.png""]","true","[[138,249],[226,51],[10,74]]","false",""
"visual-search-circle","72","2.2.0","368156","78921","visual_search_trial","625","","j","","","","","","","","","","null","blue_triangle","3","[""images/Blue_Triangle.png"",""images/Blue_Triangle.png"",""images/Blue_Triangle.png"",""images/Blue_Triangle.png"",""images/Blue_Triangle.png"",""images/Blue_Triangle.png""]","true","[[0,116],[55,228],[179,237],[249,133],[194,21],[70,12]]","false",""
"visual-search-circle","73","2.2.0","371605","78921","visual_search_trial","1932","","f","","","","","","","","","","null","red_blue_mix","3","[""images/Red_Triangle.png"",""images/Red_Circle.png"",""images/Blue_Triangle.png"",""images/Red_Circle.png"",""images/Blue_Circle.png"",""images/Blue_Triangle.png"",""images/Red_Circle.png"",""images/Blue_Circle.png"",""images/Red_Circle.png""]","true","[[165,6],[80,8],[15,64],[2,148],[46,222],[127,249],[207,219],[248,144],[232,60]]","true",""
"visual-search-circle","74","2.2.0","380429","78921","visual_search_trial","7320","","f","","","","","","","","","","null","red_circle","3","[""images/Red_Triangle.png"",""images/Red_Circle.png"",""images/Red_Circle.png""]","true","[[157,245],[213,36],[4,92]]","true",""
"visual-search-circle","75","2.2.0","386006","78921","visual_search_trial","4064","","f","","","","","","","","","","null","blue_triangle","3","[""images/Red_Triangle.png"",""images/Blue_Triangle.png"",""images/Blue_Triangle.png""]","true","[[7,167],[220,205],[146,1]]","true",""
"visual-search-circle","76","2.2.0","388323","78921","visual_search_trial","805","","j","","","","","","","","","","null","red_circle","3","[""images/Red_Circle.png"",""images/Red_Circle.png"",""images/Red_Circle.png"",""images/Red_Circle.png"",""images/Red_Circle.png"",""images/Red_Circle.png"",""images/Red_Circle.png"",""images/Red_Circle.png"",""images/Red_Circle.png""]","true","[[15,64],[2,148],[46,222],[127,249],[207,219],[248,144],[232,60],[165,6],[80,8]]","false",""
"visual-search-circle","77","2.2.0","390446","78921","visual_search_trial","621","","f","","","","","","","","","","null","red_blue_mix","3","[""images/Red_Triangle.png"",""images/Blue_Circle.png"",""images/Red_Circle.png""]","true","[[118,0],[20,193],[236,181]]","true",""
"visual-search-circle","78","2.2.0","392544","78921","visual_search_trial","582","","j","","","","","","","","","","null","red_circle","3","[""images/Red_Circle.png"",""images/Red_Circle.png"",""images/Red_Circle.png"",""images/Red_Circle.png"",""images/Red_Circle.png"",""images/Red_Circle.png""]","true","[[1,107],[48,223],[171,240],[248,142],[201,26],[78,9]]","false",""
"visual-search-circle","79","2.2.0","394544","78921","visual_search_trial","494","","f","","","","","","","","","","null","blue_triangle","3","[""images/Red_Triangle.png"",""images/Blue_Triangle.png"",""images/Blue_Triangle.png"",""images/Blue_Triangle.png"",""images/Blue_Triangle.png"",""images/Blue_Triangle.png"",""images/Blue_Triangle.png"",""images/Blue_Triangle.png"",""images/Blue_Triangle.png""]","true","[[242,167],[242,82],[187,16],[103,1],[29,44],[0,124],[29,205],[103,248],[187,233]]","true",""
"visual-search-circle","80","2.2.0","396685","78921","visual_search_trial","634","","f","","","","","","","","","","null","red_circle","3","[""images/Red_Triangle.png"",""images/Red_Circle.png"",""images/Red_Circle.png"",""images/Red_Circle.png"",""images/Red_Circle.png"",""images/Red_Circle.png""]","true","[[239,175],[226,51],[111,0],[10,74],[23,198],[138,249]]","true",""
"visual-search-circle","81","2.2.0","398885","78921","visual_search_trial","687","","j","","","","","","","","","","null","red_blue_mix","3","[""images/Red_Circle.png"",""images/Blue_Triangle.png"",""images/Blue_Triangle.png"",""images/Red_Circle.png"",""images/Blue_Triangle.png"",""images/Red_Circle.png"",""images/Red_Circle.png"",""images/Blue_Triangle.png"",""images/Red_Circle.png""]","true","[[33,210],[109,249],[193,229],[244,161],[240,76],[181,13],[96,3],[25,49],[0,131]]","false",""
"visual-search-circle","82","2.2.0","400820","78921","visual_search_trial","430","","f","","","","","","","","","","null","blue_triangle","3","[""images/Red_Triangle.png"",""images/Blue_Triangle.png"",""images/Blue_Triangle.png"",""images/Blue_Triangle.png"",""images/Blue_Triangle.png"",""images/Blue_Triangle.png""]","true","[[122,0],[15,64],[17,189],[127,249],[234,185],[232,60]]","true",""
"visual-search-circle","83","2.2.0","402758","78921","visual_search_trial","430","","f","","","","","","","","","","null","red_circle","3","[""images/Red_Triangle.png"",""images/Red_Circle.png"",""images/Red_Circle.png"",""images/Red_Circle.png"",""images/Red_Circle.png"",""images/Red_Circle.png"",""images/Red_Circle.png"",""images/Red_Circle.png"",""images/Red_Circle.png""]","true","[[62,233],[146,248],[220,205],[250,125],[220,44],[146,1],[62,16],[7,82],[7,167]]","true",""
"visual-search-circle","84","2.2.0","404845","78921","visual_search_trial","585","","f","","","","","","","","","","null","red_blue_mix","3","[""images/Red_Triangle.png"",""images/Red_Circle.png"",""images/Red_Circle.png"",""images/Red_Circle.png"",""images/Blue_Triangle.png"",""images/Blue_Circle.png""]","true","[[114,0],[11,72],[22,196],[135,249],[238,177],[227,53]]","true",""
"visual-search-circle","85","2.2.0","406844","78921","visual_search_trial","485","","j","","","","","","","","","","null","red_circle","3","[""images/Red_Circle.png"",""images/Red_Circle.png"",""images/Red_Circle.png""]","true","[[33,210],[244,161],[96,3]]","false",""
"visual-search-circle","86","2.2.0","409255","78921","visual_search_trial","907","","j","","","","","","","","","","null","blue_triangle","3","[""images/Blue_Triangle.png"",""images/Blue_Triangle.png"",""images/Blue_Triangle.png""]","true","[[107,1],[26,201],[240,171]]","false",""
"visual-search-circle","87","2.2.0","411550","78921","visual_search_trial","783","","j","","","","","","","","","","null","red_blue_mix","3","[""images/Blue_Circle.png"",""images/Red_Circle.png"",""images/Red_Circle.png"",""images/Blue_Circle.png"",""images/Blue_Circle.png"",""images/Blue_Circle.png""]","true","[[0,129],[66,235],[191,231],[249,120],[183,14],[58,18]]","false",""
"html-keyboard-response","88","2.1.0","428729","78921","break","17179","<p>Great job so far! Please rest for a few seconds before continuing.</p>
                 <p>Press the <strong>G</strong> key on your keyboard to continue.</p>","g","","","","","","","","","","","","","","","","","G"
"visual-search-circle","89","2.2.0","436987","78921","visual_search_trial","6747","","f","","","","","","","","","","null","red_circle","4","[""images/Red_Triangle.png"",""images/Red_Circle.png"",""images/Red_Circle.png"",""images/Red_Circle.png"",""images/Red_Circle.png"",""images/Red_Circle.png""]","true","[[159,245],[246,155],[211,35],[90,4],[3,94],[38,214]]","true",""
"visual-search-circle","90","2.2.0","446768","78921","visual_search_trial","8267","","f","","","","","","","","","","null","blue_triangle","4","[""images/Red_Triangle.png"",""images/Blue_Triangle.png"",""images/Blue_Triangle.png"",""images/Blue_Triangle.png"",""images/Blue_Triangle.png"",""images/Blue_Triangle.png"",""images/Blue_Triangle.png"",""images/Blue_Triangle.png"",""images/Blue_Triangle.png""]","true","[[120,0],[41,32],[1,107],[18,191],[86,243],[171,240],[235,183],[247,99],[201,26]]","true",""
"visual-search-circle","91","2.2.0","463729","78921","visual_search_trial","15451","","j","","","","","","","","","","null","red_blue_mix","4","[""images/Blue_Triangle.png"",""images/Blue_Circle.png"",""images/Blue_Triangle.png"",""images/Red_Circle.png"",""images/Blue_Triangle.png"",""images/Blue_Triangle.png"",""images/Red_Circle.png"",""images/Red_Circle.png"",""images/Blue_Circle.png""]","true","[[8,169],[64,234],[148,247],[222,203],[249,122],[219,42],[144,1],[60,17],[6,84]]","false",""
"visual-search-circle","92","2.2.0","465875","78921","visual_search_trial","645","","j","","","","","","","","","","null","red_circle","4","[""images/Red_Circle.png"",""images/Red_Circle.png"",""images/Red_Circle.png"",""images/Red_Circle.png"",""images/Red_Circle.png"",""images/Red_Circle.png""]","true","[[0,127],[64,234],[189,232],[249,122],[185,15],[60,17]]","false",""
"visual-search-circle","93","2.2.0","468066","78921","visual_search_trial","684","","f","","","","","","","","","","null","blue_triangle","4","[""images/Red_Triangle.png"",""images/Blue_Triangle.png"",""images/Blue_Triangle.png"",""images/Blue_Triangle.png"",""images/Blue_Triangle.png"",""images/Blue_Triangle.png""]","true","[[84,243],[207,219],[247,101],[165,6],[42,30],[2,148]]","true",""
"visual-search-circle","94","2.2.0","470171","78921","visual_search_trial","588","","j","","","","","","","","","","null","red_circle","4","[""images/Red_Circle.png"",""images/Red_Circle.png"",""images/Red_Circle.png"",""images/Red_Circle.png"",""images/Red_Circle.png"",""images/Red_Circle.png"",""images/Red_Circle.png"",""images/Red_Circle.png"",""images/Red_Circle.png""]","true","[[80,241],[165,243],[232,189],[248,105],[207,30],[127,0],[46,27],[2,101],[15,185]]","false",""
"visual-search-circle","95","2.2.0","473880","78921","visual_search_trial","2207","","f","","","","","","","","","","null","red_blue_mix","4","[""images/Red_Triangle.png"",""images/Blue_Circle.png"",""images/Blue_Triangle.png"",""images/Blue_Triangle.png"",""images/Blue_Circle.png"",""images/Blue_Circle.png""]","true","[[198,23],[74,10],[0,111],[51,226],[175,239],[249,138]]","true",""
"visual-search-circle","96","2.2.0","476183","78921","visual_search_trial","789","","j","","","","","","","","","","null","blue_triangle","4","[""images/Blue_Triangle.png"",""images/Blue_Triangle.png"",""images/Blue_Triangle.png"",""images/Blue_Triangle.png"",""images/Blue_Triangle.png"",""images/Blue_Triangle.png"",""images/Blue_Triangle.png"",""images/Blue_Triangle.png"",""images/Blue_Triangle.png""]","true","[[157,4],[72,11],[11,72],[4,157],[53,227],[135,249],[213,213],[249,135],[227,53]]","false",""
"visual-search-circle","97","2.2.0","478159","78921","visual_search_trial","473","","j","","","","","","","","","","null","red_blue_mix","4","[""images/Blue_Triangle.png"",""images/Blue_Circle.png"",""images/Blue_Circle.png""]","true","[[224,49],[9,76],[140,249]]","false",""
"visual-search-circle","98","2.2.0","480444","78921","visual_search_trial","784","","f","","","","","","","","","","null","blue_triangle","4","[""images/Red_Triangle.png"",""images/Blue_Triangle.png"",""images/Blue_Triangle.png""]","true","[[66,235],[249,120],[58,18]]","true",""
"visual-search-circle","99","2.2.0","482409","78921","visual_search_trial","456","","f","","","","","","","","","","null","red_circle","4","[""images/Red_Triangle.png"",""images/Red_Circle.png"",""images/Red_Circle.png"",""images/Red_Circle.png"",""images/Red_Circle.png"",""images/Red_Circle.png"",""images/Red_Circle.png"",""images/Red_Circle.png"",""images/Red_Circle.png""]","true","[[220,44],[146,1],[62,16],[7,82],[7,167],[62,233],[146,248],[220,205],[250,125]]","true",""
"visual-search-circle","100","2.2.0","484531","78921","visual_search_trial","608","","f","","","","","","","","","","null","red_blue_mix","4","[""images/Red_Triangle.png"",""images/Blue_Triangle.png"",""images/Blue_Circle.png"",""images/Blue_Circle.png"",""images/Blue_Triangle.png"",""images/Blue_Triangle.png"",""images/Blue_Triangle.png"",""images/Red_Circle.png"",""images/Red_Circle.png""]","true","[[122,0],[42,30],[1,105],[17,189],[84,243],[169,241],[234,185],[247,101],[203,27]]","true",""
"visual-search-circle","101","2.2.0","486553","78921","visual_search_trial","514","","j","","","","","","","","","","null","blue_triangle","4","[""images/Blue_Triangle.png"",""images/Blue_Triangle.png"",""images/Blue_Triangle.png""]","true","[[7,167],[220,205],[146,1]]","false",""
"visual-search-circle","102","2.2.0","488534","78921","visual_search_trial","470","","j","","","","","","","","","","null","red_circle","4","[""images/Red_Circle.png"",""images/Red_Circle.png"",""images/Red_Circle.png""]","true","[[25,49],[109,249],[240,76]]","false",""
"visual-search-circle","103","2.2.0","490617","78921","visual_search_trial","572","","j","","","","","","","","","","null","blue_triangle","4","[""images/Blue_Triangle.png"",""images/Blue_Triangle.png"",""images/Blue_Triangle.png"",""images/Blue_Triangle.png"",""images/Blue_Triangle.png"",""images/Blue_Triangle.png""]","true","[[30,207],[148,247],[243,165],[219,42],[101,2],[6,84]]","false",""
"visual-search-circle","104","2.2.0","492710","78921","visual_search_trial","585","","f","","","","","","","","","","null","red_blue_mix","4","[""images/Red_Triangle.png"",""images/Blue_Circle.png"",""images/Blue_Triangle.png""]","true","[[101,247],[243,84],[30,42]]","true",""
"visual-search-circle","105","2.2.0","494724","78921","visual_search_trial","503","","f","","","","","","","","","","null","red_circle","4","[""images/Red_Triangle.png"",""images/Red_Circle.png"",""images/Red_Circle.png""]","true","[[138,249],[226,51],[10,74]]","true",""
"visual-search-circle","106","2.2.0","496800","78921","visual_search_trial","570","","j","","","","","","","","","","null","red_blue_mix","4","[""images/Blue_Circle.png"",""images/Blue_Triangle.png"",""images/Red_Circle.png"",""images/Red_Circle.png"",""images/Blue_Circle.png"",""images/Red_Circle.png""]","true","[[4,90],[35,211],[155,246],[245,159],[214,38],[94,3]]","false",""
"visual-search-circle","107","2.2.0","498863","78921","visual_search_trial","555","","f","","","","","","","","","","null","blue_triangle","5","[""images/Red_Triangle.png"",""images/Blue_Triangle.png"",""images/Blue_Triangle.png"",""images/Blue_Triangle.png"",""images/Blue_Triangle.png"",""images/Blue_Triangle.png"",""images/Blue_Triangle.png"",""images/Blue_Triangle.png"",""images/Blue_Triangle.png""]","true","[[82,7],[16,62],[1,146],[44,220],[125,250],[205,220],[248,146],[233,62],[167,7]]","true",""
"visual-search-circle","108","2.2.0","501072","78921","visual_search_trial","707","","j","","","","","","","","","","null","red_blue_mix","5","[""images/Blue_Circle.png"",""images/Blue_Circle.png"",""images/Blue_Triangle.png"",""images/Blue_Circle.png"",""images/Blue_Triangle.png"",""images/Blue_Circle.png""]","true","[[161,5],[39,33],[3,153],[88,244],[210,216],[246,96]]","false",""
"visual-search-circle","109","2.2.0","503078","78921","visual_search_trial","492","","j","","","","","","","","","","null","blue_triangle","5","[""images/Blue_Triangle.png"",""images/Blue_Triangle.png"",""images/Blue_Triangle.png"",""images/Blue_Triangle.png"",""images/Blue_Triangle.png"",""images/Blue_Triangle.png""]","true","[[223,201],[240,78],[142,1],[26,48],[9,171],[107,248]]","false",""
"visual-search-circle","110","2.2.0","505393","78921","visual_search_trial","813","","j","","","","","","","","","","null","red_circle","5","[""images/Red_Circle.png"",""images/Red_Circle.png"",""images/Red_Circle.png""]","true","[[1,146],[205,220],[167,7]]","false",""
"visual-search-circle","111","2.2.0","507482","78921","visual_search_trial","585","","f","","","","","","","","","","null","blue_triangle","5","[""images/Red_Triangle.png"",""images/Blue_Triangle.png"",""images/Blue_Triangle.png""]","true","[[127,0],[15,185],[232,189]]","true",""
"visual-search-circle","112","2.2.0","509537","78921","visual_search_trial","546","","f","","","","","","","","","","null","red_blue_mix","5","[""images/Red_Triangle.png"",""images/Red_Circle.png"",""images/Blue_Triangle.png"",""images/Red_Circle.png"",""images/Blue_Triangle.png"",""images/Red_Circle.png""]","true","[[125,0],[16,62],[16,187],[125,250],[233,187],[233,62]]","true",""
"visual-search-circle","113","2.2.0","511548","78921","visual_search_trial","496","","f","","","","","","","","","","null","red_circle","5","[""images/Red_Triangle.png"",""images/Red_Circle.png"",""images/Red_Circle.png""]","true","[[48,26],[78,240],[248,107]]","true",""
"visual-search-circle","114","2.2.0","513561","78921","visual_search_trial","498","","j","","","","","","","","","","null","blue_triangle","5","[""images/Blue_Triangle.png"",""images/Blue_Triangle.png"",""images/Blue_Triangle.png"",""images/Blue_Triangle.png"",""images/Blue_Triangle.png"",""images/Blue_Triangle.png"",""images/Blue_Triangle.png"",""images/Blue_Triangle.png"",""images/Blue_Triangle.png""]","true","[[36,36],[0,114],[22,196],[92,245],[177,238],[238,177],[245,92],[196,22],[114,0]]","false",""
"visual-search-circle","115","2.2.0","515712","78921","visual_search_trial","637","","j","","","","","","","","","","null","red_blue_mix","5","[""images/Blue_Triangle.png"",""images/Red_Circle.png"",""images/Red_Circle.png"",""images/Blue_Triangle.png"",""images/Red_Circle.png"",""images/Blue_Triangle.png"",""images/Red_Circle.png"",""images/Blue_Triangle.png"",""images/Blue_Triangle.png""]","true","[[0,120],[26,201],[99,247],[183,235],[240,171],[243,86],[191,18],[107,1],[32,41]]","false",""
"visual-search-circle","116","2.2.0","517955","78921","visual_search_trial","742","","f","","","","","","","","","","null","red_circle","5","[""images/Red_Triangle.png"",""images/Red_Circle.png"",""images/Red_Circle.png"",""images/Red_Circle.png"",""images/Red_Circle.png"",""images/Red_Circle.png""]","true","[[16,187],[125,250],[233,187],[233,62],[125,0],[16,62]]","true",""
"visual-search-circle","117","2.2.0","520017","78921","visual_search_trial","558","","j","","","","","","","","","","null","blue_triangle","5","[""images/Blue_Triangle.png"",""images/Blue_Triangle.png"",""images/Blue_Triangle.png""]","true","[[72,238],[249,114],[53,22]]","false",""
"visual-search-circle","118","2.2.0","522514","78921","visual_search_trial","992","","f","","","","","","","","","","null","red_blue_mix","5","[""images/Red_Triangle.png"",""images/Blue_Circle.png"",""images/Blue_Circle.png"",""images/Red_Circle.png"",""images/Blue_Triangle.png"",""images/Red_Circle.png"",""images/Red_Circle.png"",""images/Blue_Circle.png"",""images/Blue_Circle.png""]","true","[[42,30],[1,105],[17,189],[84,243],[169,241],[234,185],[247,101],[203,27],[122,0]]","true",""
"visual-search-circle","119","2.2.0","524637","78921","visual_search_trial","617","","j","","","","","","","","","","null","red_circle","5","[""images/Red_Circle.png"",""images/Red_Circle.png"",""images/Red_Circle.png"",""images/Red_Circle.png"",""images/Red_Circle.png"",""images/Red_Circle.png"",""images/Red_Circle.png"",""images/Red_Circle.png"",""images/Red_Circle.png""]","true","[[7,82],[7,167],[62,233],[146,248],[220,205],[250,125],[220,44],[146,1],[62,16]]","false",""
"visual-search-circle","120","2.2.0","526769","78921","visual_search_trial","631","","f","","","","","","","","","","null","red_blue_mix","5","[""images/Red_Triangle.png"",""images/Blue_Triangle.png"",""images/Blue_Circle.png""]","true","[[155,246],[214,38],[4,90]]","true",""
"visual-search-circle","121","2.2.0","530487","78921","visual_search_trial","2212","","j","","","","","","","","","","null","red_circle","5","[""images/Red_Circle.png"",""images/Red_Circle.png"",""images/Red_Circle.png"",""images/Red_Circle.png"",""images/Red_Circle.png"",""images/Red_Circle.png""]","true","[[2,101],[42,219],[165,243],[247,148],[207,30],[84,6]]","false",""
"visual-search-circle","122","2.2.0","532554","78921","visual_search_trial","557","","f","","","","","","","","","","null","blue_triangle","5","[""images/Red_Triangle.png"",""images/Blue_Triangle.png"",""images/Blue_Triangle.png"",""images/Blue_Triangle.png"",""images/Blue_Triangle.png"",""images/Blue_Triangle.png""]","true","[[249,127],[189,17],[64,15],[0,122],[60,232],[185,234]]","true",""
"visual-search-circle","123","2.2.0","534765","78921","visual_search_trial","708","","f","","","","","","","","","","null","red_circle","5","[""images/Red_Triangle.png"",""images/Red_Circle.png"",""images/Red_Circle.png"",""images/Red_Circle.png"",""images/Red_Circle.png"",""images/Red_Circle.png"",""images/Red_Circle.png"",""images/Red_Circle.png"",""images/Red_Circle.png""]","true","[[7,82],[7,167],[62,233],[146,248],[220,205],[250,125],[220,44],[146,1],[62,16]]","true",""
"visual-search-circle","124","2.2.0","536795","78921","visual_search_trial","525","","j","","","","","","","","","","null","red_blue_mix","5","[""images/Red_Circle.png"",""images/Blue_Circle.png"",""images/Blue_Triangle.png""]","true","[[76,240],[249,109],[49,25]]","false",""
"html-keyboard-response","125","2.1.0","641916","78921","break","105121","<p>Great job so far! Please rest for a few seconds before continuing.</p>
                 <p>Press the <strong>V</strong> key on your keyboard to continue.</p>","v","","","","","","","","","","","","","","","","","V"
"visual-search-circle","126","2.2.0","644935","78921","visual_search_trial","1506","","j","","","","","","","","","","null","blue_triangle","6","[""images/Blue_Triangle.png"",""images/Blue_Triangle.png"",""images/Blue_Triangle.png""]","true","[[146,248],[220,44],[7,82]]","false",""
"visual-search-circle","127","2.2.0","648259","78921","visual_search_trial","1797","","j","","","","","","","","","","null","red_circle","6","[""images/Red_Circle.png"",""images/Red_Circle.png"",""images/Red_Circle.png""]","true","[[92,4],[36,213],[245,157]]","false",""
"visual-search-circle","128","2.2.0","650532","78921","visual_search_trial","766","","j","","","","","","","","","","null","blue_triangle","6","[""images/Blue_Triangle.png"",""images/Blue_Triangle.png"",""images/Blue_Triangle.png"",""images/Blue_Triangle.png"",""images/Blue_Triangle.png"",""images/Blue_Triangle.png"",""images/Blue_Triangle.png"",""images/Blue_Triangle.png"",""images/Blue_Triangle.png""]","true","[[0,138],[38,214],[116,249],[198,226],[246,155],[237,70],[175,10],[90,4],[21,55]]","false",""
"visual-search-circle","129","2.2.0","653891","78921","visual_search_trial","1851","","f","","","","","","","","","","null","red_blue_mix","6","[""images/Red_Triangle.png"",""images/Blue_Circle.png"",""images/Blue_Circle.png"",""images/Blue_Circle.png"",""images/Blue_Triangle.png"",""images/Blue_Triangle.png""]","true","[[2,148],[84,243],[207,219],[247,101],[165,6],[42,30]]","true",""
"visual-search-circle","130","2.2.0","661020","78921","visual_search_trial","5621","","j","","","","","","","","","","null","red_circle","6","[""images/Red_Circle.png"",""images/Red_Circle.png"",""images/Red_Circle.png"",""images/Red_Circle.png"",""images/Red_Circle.png"",""images/Red_Circle.png""]","true","[[249,109],[173,9],[49,25],[0,140],[76,240],[200,224]]","false",""
"visual-search-circle","131","2.2.0","668984","78921","visual_search_trial","6448","","f","","","","","","","","","","null","blue_triangle","6","[""images/Red_Triangle.png"",""images/Blue_Triangle.png"",""images/Blue_Triangle.png"",""images/Blue_Triangle.png"",""images/Blue_Triangle.png"",""images/Blue_Triangle.png""]","true","[[249,140],[200,25],[76,9],[0,109],[49,224],[173,240]]","true",""
"visual-search-circle","132","2.2.0","672884","78921","visual_search_trial","2389","","j","","","","","","","","","","null","red_blue_mix","6","[""images/Blue_Circle.png"",""images/Blue_Triangle.png"",""images/Blue_Triangle.png""]","true","[[84,6],[42,219],[247,148]]","false",""
"visual-search-circle","133","2.2.0","676310","78921","visual_search_trial","1912","","f","","","","","","","","","","null","blue_triangle","6","[""images/Red_Triangle.png"",""images/Blue_Triangle.png"",""images/Blue_Triangle.png"",""images/Blue_Triangle.png"",""images/Blue_Triangle.png"",""images/Blue_Triangle.png"",""images/Blue_Triangle.png"",""images/Blue_Triangle.png"",""images/Blue_Triangle.png""]","true","[[249,129],[223,48],[150,2],[66,14],[9,78],[6,163],[58,231],[142,248],[217,208]]","true",""
"visual-search-circle","134","2.2.0","684994","78921","visual_search_trial","7181","","f","","","","","","","","","","null","red_blue_mix","6","[""images/Red_Triangle.png"",""images/Blue_Triangle.png"",""images/Red_Circle.png""]","true","[[9,76],[140,249],[224,49]]","true",""
"visual-search-circle","135","2.2.0","687033","78921","visual_search_trial","527","","f","","","","","","","","","","null","red_circle","6","[""images/Red_Triangle.png"",""images/Red_Circle.png"",""images/Red_Circle.png""]","true","[[193,229],[181,13],[0,131]]","true",""
"visual-search-circle","136","2.2.0","697126","78921","visual_search_trial","8577","","f","","","","","","","","","","null","blue_triangle","6","[""images/Red_Triangle.png"",""images/Blue_Triangle.png"",""images/Blue_Triangle.png""]","true","[[213,213],[157,4],[4,157]]","true",""
"visual-search-circle","137","2.2.0","699991","78921","visual_search_trial","1359","","j","","","","","","","","","","null","red_circle","6","[""images/Red_Circle.png"",""images/Red_Circle.png"",""images/Red_Circle.png"",""images/Red_Circle.png"",""images/Red_Circle.png"",""images/Red_Circle.png"",""images/Red_Circle.png"",""images/Red_Circle.png"",""images/Red_Circle.png""]","true","[[44,220],[125,250],[205,220],[248,146],[233,62],[167,7],[82,7],[16,62],[1,146]]","false",""
"visual-search-circle","138","2.2.0","707638","78921","visual_search_trial","6141","","f","","","","","","","","","","null","red_blue_mix","6","[""images/Red_Triangle.png"",""images/Blue_Circle.png"",""images/Blue_Circle.png"",""images/Red_Circle.png"",""images/Red_Circle.png"",""images/Red_Circle.png"",""images/Blue_Triangle.png"",""images/Red_Circle.png"",""images/Red_Circle.png""]","true","[[48,223],[129,249],[208,217],[248,142],[231,58],[163,6],[78,9],[14,66],[2,150]]","true",""
"visual-search-circle","139","2.2.0","710912","78921","visual_search_trial","1759","","j","","","","","","","","","","null","blue_triangle","6","[""images/Blue_Triangle.png"",""images/Blue_Triangle.png"",""images/Blue_Triangle.png"",""images/Blue_Triangle.png"",""images/Blue_Triangle.png"",""images/Blue_Triangle.png""]","true","[[205,29],[82,7],[1,103],[44,220],[167,242],[248,146]]","false",""
"visual-search-circle","140","2.2.0","713012","78921","visual_search_trial","594","","j","","","","","","","","","","null","red_blue_mix","6","[""images/Blue_Circle.png"",""images/Blue_Circle.png"",""images/Blue_Circle.png"",""images/Red_Circle.png"",""images/Red_Circle.png"",""images/Blue_Circle.png"",""images/Red_Circle.png"",""images/Red_Circle.png"",""images/Blue_Circle.png""]","true","[[185,234],[241,169],[243,84],[189,17],[105,1],[30,42],[0,122],[27,203],[101,247]]","false",""
"visual-search-circle","141","2.2.0","714983","78921","visual_search_trial","459","","f","","","","","","","","","","null","red_circle","6","[""images/Red_Triangle.png"",""images/Red_Circle.png"",""images/Red_Circle.png"",""images/Red_Circle.png"",""images/Red_Circle.png"",""images/Red_Circle.png"",""images/Red_Circle.png"",""images/Red_Circle.png"",""images/Red_Circle.png""]","true","[[92,245],[177,238],[238,177],[245,92],[196,22],[114,0],[36,36],[0,114],[22,196]]","true",""
"visual-search-circle","142","2.2.0","717043","78921","visual_search_trial","555","","j","","","","","","","","","","null","red_blue_mix","6","[""images/Blue_Circle.png"",""images/Blue_Circle.png"",""images/Blue_Circle.png"",""images/Blue_Circle.png"",""images/Blue_Triangle.png"",""images/Blue_Triangle.png""]","true","[[249,109],[173,9],[49,25],[0,140],[76,240],[200,224]]","false",""
"visual-search-circle","143","2.2.0","719038","78921","visual_search_trial","486","","f","","","","","","","","","","null","red_circle","6","[""images/Red_Triangle.png"",""images/Red_Circle.png"",""images/Red_Circle.png"",""images/Red_Circle.png"",""images/Red_Circle.png"",""images/Red_Circle.png""]","true","[[35,211],[155,246],[245,159],[214,38],[94,3],[4,90]]","true",""
"visual-search-circle","144","2.2.0","721129","78921","visual_search_trial","585","","f","","","","","","","","","","null","red_blue_mix","7","[""images/Red_Triangle.png"",""images/Blue_Triangle.png"",""images/Red_Circle.png"",""images/Blue_Triangle.png"",""images/Blue_Triangle.png"",""images/Red_Circle.png"",""images/Red_Circle.png"",""images/Blue_Circle.png"",""images/Blue_Triangle.png""]","true","[[15,64],[2,148],[46,222],[127,249],[207,219],[248,144],[232,60],[165,6],[80,8]]","true",""
"visual-search-circle","145","2.2.0","723488","78921","visual_search_trial","852","","j","","","","","","","","","","null","blue_triangle","7","[""images/Blue_Triangle.png"",""images/Blue_Triangle.png"",""images/Blue_Triangle.png"",""images/Blue_Triangle.png"",""images/Blue_Triangle.png"",""images/Blue_Triangle.png"",""images/Blue_Triangle.png"",""images/Blue_Triangle.png"",""images/Blue_Triangle.png""]","true","[[163,243],[231,191],[248,107],[208,32],[129,0],[48,26],[2,99],[14,183],[78,240]]","false",""
"visual-search-circle","146","2.2.0","726358","78921","visual_search_trial","1362","","f","","","","","","","","","","null","red_blue_mix","7","[""images/Red_Triangle.png"",""images/Red_Circle.png"",""images/Blue_Triangle.png"",""images/Blue_Circle.png"",""images/Blue_Circle.png"",""images/Blue_Circle.png""]","true","[[200,25],[76,9],[0,109],[49,224],[173,240],[249,140]]","true",""
"visual-search-circle","147","2.2.0","729184","78921","visual_search_trial","1314","","f","","","","","","","","","","null","red_circle","7","[""images/Red_Triangle.png"",""images/Red_Circle.png"",""images/Red_Circle.png"",""images/Red_Circle.png"",""images/Red_Circle.png"",""images/Red_Circle.png"",""images/Red_Circle.png"",""images/Red_Circle.png"",""images/Red_Circle.png""]","true","[[0,120],[26,201],[99,247],[183,235],[240,171],[243,86],[191,18],[107,1],[32,41]]","true",""
"visual-search-circle","148","2.2.0","731987","78921","visual_search_trial","1290","","j","","","","","","","","","","null","blue_triangle","7","[""images/Blue_Triangle.png"",""images/Blue_Triangle.png"",""images/Blue_Triangle.png""]","true","[[44,29],[82,242],[248,103]]","false",""
"visual-search-circle","149","2.2.0","736736","78921","visual_search_trial","3246","","f","","","","","","","","","","null","red_blue_mix","7","[""images/Red_Triangle.png"",""images/Blue_Triangle.png"",""images/Red_Circle.png""]","true","[[82,242],[248,103],[44,29]]","true",""
"visual-search-circle","150","2.2.0","754820","78921","visual_search_trial","16568","","f","","","","","","","","","","null","blue_triangle","7","[""images/Red_Triangle.png"",""images/Blue_Triangle.png"",""images/Blue_Triangle.png""]","true","[[171,9],[1,142],[201,223]]","true",""
"visual-search-circle","151","2.2.0","757512","78921","visual_search_trial","1186","","j","","","","","","","","","","null","red_circle","7","[""images/Red_Circle.png"",""images/Red_Circle.png"",""images/Red_Circle.png""]","true","[[249,127],[64,15],[60,232]]","false",""
"visual-search-circle","152","2.2.0","759933","78921","visual_search_trial","910","","j","","","","","","","","","","null","red_blue_mix","7","[""images/Blue_Circle.png"",""images/Red_Circle.png"",""images/Blue_Triangle.png"",""images/Red_Circle.png"",""images/Blue_Circle.png"",""images/Red_Circle.png""]","true","[[0,131],[68,236],[193,229],[249,118],[181,13],[56,20]]","false",""
"visual-search-circle","153","2.2.0","762020","78921","visual_search_trial","577","","j","","","","","","","","","","null","red_circle","7","[""images/Red_Circle.png"",""images/Red_Circle.png"",""images/Red_Circle.png"",""images/Red_Circle.png"",""images/Red_Circle.png"",""images/Red_Circle.png"",""images/Red_Circle.png"",""images/Red_Circle.png"",""images/Red_Circle.png""]","true","[[241,169],[243,84],[189,17],[105,1],[30,42],[0,122],[27,203],[101,247],[185,234]]","false",""
"visual-search-circle","154","2.2.0","776213","78921","visual_search_trial","12679","","f","","","","","","","","","","null","blue_triangle","7","[""images/Red_Triangle.png"",""images/Blue_Triangle.png"",""images/Blue_Triangle.png"",""images/Blue_Triangle.png"",""images/Blue_Triangle.png"",""images/Blue_Triangle.png"",""images/Blue_Triangle.png"",""images/Blue_Triangle.png"",""images/Blue_Triangle.png""]","true","[[249,131],[224,49],[153,3],[68,13],[9,76],[5,161],[56,229],[140,249],[216,210]]","true",""
"visual-search-circle","155","2.2.0","784650","78921","visual_search_trial","6929","","j","","","","","","","","","","null","red_blue_mix","7","[""images/Blue_Triangle.png"",""images/Blue_Circle.png"",""images/Blue_Triangle.png""]","true","[[238,72],[22,53],[114,249]]","false",""
"visual-search-circle","156","2.2.0","786809","78921","visual_search_trial","656","","j","","","","","","","","","","null","red_circle","7","[""images/Red_Circle.png"",""images/Red_Circle.png"",""images/Red_Circle.png"",""images/Red_Circle.png"",""images/Red_Circle.png"",""images/Red_Circle.png""]","true","[[237,70],[133,0],[21,55],[12,179],[116,249],[228,194]]","false",""
"visual-search-circle","157","2.2.0","789027","78921","visual_search_trial","707","","j","","","","","","","","","","null","blue_triangle","7","[""images/Blue_Triangle.png"",""images/Blue_Triangle.png"",""images/Blue_Triangle.png"",""images/Blue_Triangle.png"",""images/Blue_Triangle.png"",""images/Blue_Triangle.png""]","true","[[27,203],[144,248],[241,169],[222,46],[105,1],[8,80]]","false",""
"visual-search-circle","158","2.2.0","861296","78921","visual_search_trial","70761","","j","","","","","","","","","","null","red_blue_mix","7","[""images/Blue_Triangle.png"",""images/Blue_Triangle.png"",""images/Blue_Triangle.png"",""images/Blue_Circle.png"",""images/Red_Circle.png"",""images/Red_Circle.png"",""images/Blue_Triangle.png"",""images/Blue_Circle.png"",""images/Red_Circle.png""]","true","[[66,235],[150,247],[223,201],[249,120],[217,41],[142,1],[58,18],[6,86],[9,171]]","false",""
"visual-search-circle","159","2.2.0","863877","78921","visual_search_trial","1074","","f","","","","","","","","","","null","red_circle","7","[""images/Red_Triangle.png"",""images/Red_Circle.png"",""images/Red_Circle.png""]","true","[[10,175],[226,198],[138,0]]","true",""
"visual-search-circle","160","2.2.0","869733","78921","visual_search_trial","4340","","f","","","","","","","","","","null","blue_triangle","7","[""images/Red_Triangle.png"",""images/Blue_Triangle.png"",""images/Blue_Triangle.png"",""images/Blue_Triangle.png"",""images/Blue_Triangle.png"",""images/Blue_Triangle.png""]","true","[[10,74],[23,198],[138,249],[239,175],[226,51],[111,0]]","true",""
"visual-search-circle","161","2.2.0","877155","78921","visual_search_trial","5912","","f","","","","","","","","","","null","red_circle","7","[""images/Red_Triangle.png"",""images/Red_Circle.png"",""images/Red_Circle.png"",""images/Red_Circle.png"",""images/Red_Circle.png"",""images/Red_Circle.png""]","true","[[193,20],[68,13],[0,118],[56,229],[181,236],[249,131]]","true",""
"html-keyboard-response","162","2.1.0","884448","78921","break","7293","<p>Great job so far! Please rest for a few seconds before continuing.</p>
                 <p>Press the <strong>B</strong> key on your keyboard to continue.</p>","b","","","","","","","","","","","","","","","","","B"
"visual-search-circle","163","2.2.0","887660","78921","visual_search_trial","1709","","f","","","","","","","","","","null","red_blue_mix","8","[""images/Red_Triangle.png"",""images/Blue_Circle.png"",""images/Blue_Circle.png"",""images/Red_Circle.png"",""images/Red_Circle.png"",""images/Red_Circle.png"",""images/Red_Circle.png"",""images/Red_Circle.png"",""images/Blue_Triangle.png""]","true","[[246,153],[236,68],[173,9],[88,5],[20,56],[0,140],[39,216],[118,249],[200,224]]","true",""
"visual-search-circle","164","2.2.0","889701","78921","visual_search_trial","540","","j","","","","","","","","","","null","blue_triangle","8","[""images/Blue_Triangle.png"",""images/Blue_Triangle.png"",""images/Blue_Triangle.png""]","true","[[240,171],[107,1],[26,201]]","false",""
"visual-search-circle","165","2.2.0","893786","78921","visual_search_trial","2580","","f","","","","","","","","","","null","red_circle","8","[""images/Red_Triangle.png"",""images/Red_Circle.png"",""images/Red_Circle.png"",""images/Red_Circle.png"",""images/Red_Circle.png"",""images/Red_Circle.png""]","true","[[224,200],[240,76],[140,0],[25,49],[9,173],[109,249]]","true",""
"visual-search-circle","166","2.2.0","896181","78921","visual_search_trial","894","","j","","","","","","","","","","null","blue_triangle","8","[""images/Blue_Triangle.png"",""images/Blue_Triangle.png"",""images/Blue_Triangle.png"",""images/Blue_Triangle.png"",""images/Blue_Triangle.png"",""images/Blue_Triangle.png""]","true","[[4,159],[94,246],[214,211],[245,90],[155,3],[35,38]]","false",""
"visual-search-circle","167","2.2.0","898444","78921","visual_search_trial","746","","f","","","","","","","","","","null","red_circle","8","[""images/Red_Triangle.png"",""images/Red_Circle.png"",""images/Red_Circle.png""]","true","[[238,72],[22,53],[114,249]]","true",""
"visual-search-circle","168","2.2.0","903299","78921","visual_search_trial","3344","","f","","","","","","","","","","null","blue_triangle","8","[""images/Red_Triangle.png"",""images/Blue_Triangle.png"",""images/Blue_Triangle.png"",""images/Blue_Triangle.png"",""images/Blue_Triangle.png"",""images/Blue_Triangle.png"",""images/Blue_Triangle.png"",""images/Blue_Triangle.png"",""images/Blue_Triangle.png""]","true","[[58,18],[6,86],[9,171],[66,235],[150,247],[223,201],[249,120],[217,41],[142,1]]","true",""
"visual-search-circle","169","2.2.0","906346","78921","visual_search_trial","1546","","j","","","","","","","","","","null","red_blue_mix","8","[""images/Red_Circle.png"",""images/Blue_Triangle.png"",""images/Blue_Circle.png"",""images/Red_Circle.png"",""images/Blue_Circle.png"",""images/Red_Circle.png""]","true","[[16,187],[125,250],[233,187],[233,62],[125,0],[16,62]]","false",""
"visual-search-circle","170","2.2.0","909652","78921","visual_search_trial","1791","","j","","","","","","","","","","null","red_circle","8","[""images/Red_Circle.png"",""images/Red_Circle.png"",""images/Red_Circle.png"",""images/Red_Circle.png"",""images/Red_Circle.png"",""images/Red_Circle.png"",""images/Red_Circle.png"",""images/Red_Circle.png"",""images/Red_Circle.png""]","true","[[109,0],[33,39],[0,118],[25,200],[96,246],[181,236],[240,173],[244,88],[193,20]]","false",""
"visual-search-circle","171","2.2.0","915912","78921","visual_search_trial","4746","","j","","","","","","","","","","null","red_blue_mix","8","[""images/Blue_Circle.png"",""images/Blue_Triangle.png"",""images/Red_Circle.png"",""images/Blue_Triangle.png"",""images/Blue_Circle.png"",""images/Red_Circle.png"",""images/Blue_Circle.png"",""images/Red_Circle.png"",""images/Red_Circle.png""]","true","[[58,18],[6,86],[9,171],[66,235],[150,247],[223,201],[249,120],[217,41],[142,1]]","false",""
"visual-search-circle","172","2.2.0","917873","78921","visual_search_trial","450","","j","","","","","","","","","","null","red_circle","8","[""images/Red_Circle.png"",""images/Red_Circle.png"",""images/Red_Circle.png"",""images/Red_Circle.png"",""images/Red_Circle.png"",""images/Red_Circle.png""]","true","[[140,0],[25,49],[9,173],[109,249],[224,200],[240,76]]","false",""
"visual-search-circle","173","2.2.0","922322","78921","visual_search_trial","2947","","f","","","","","","","","","","null","blue_triangle","8","[""images/Red_Triangle.png"",""images/Blue_Triangle.png"",""images/Blue_Triangle.png""]","true","[[53,22],[72,238],[249,114]]","true",""
"visual-search-circle","174","2.2.0","925059","78921","visual_search_trial","1223","","f","","","","","","","","","","null","red_blue_mix","8","[""images/Red_Triangle.png"",""images/Blue_Triangle.png"",""images/Blue_Circle.png""]","true","[[245,157],[92,4],[36,213]]","true",""
"visual-search-circle","175","2.2.0","927321","78921","visual_search_trial","753","","f","","","","","","","","","","null","red_circle","8","[""images/Red_Triangle.png"",""images/Red_Circle.png"",""images/Red_Circle.png"",""images/Red_Circle.png"",""images/Red_Circle.png"",""images/Red_Circle.png"",""images/Red_Circle.png"",""images/Red_Circle.png"",""images/Red_Circle.png""]","true","[[236,68],[173,9],[88,5],[20,56],[0,140],[39,216],[118,249],[200,224],[246,153]]","true",""
"visual-search-circle","176","2.2.0","929336","78921","visual_search_trial","505","","f","","","","","","","","","","null","blue_triangle","8","[""images/Red_Triangle.png"",""images/Blue_Triangle.png"",""images/Blue_Triangle.png"",""images/Blue_Triangle.png"",""images/Blue_Triangle.png"",""images/Blue_Triangle.png""]","true","[[193,20],[68,13],[0,118],[56,229],[181,236],[249,131]]","true",""
"visual-search-circle","177","2.2.0","932936","78921","visual_search_trial","2094","","j","","","","","","","","","","null","red_circle","8","[""images/Red_Circle.png"",""images/Red_Circle.png"",""images/Red_Circle.png""]","true","[[249,138],[74,10],[51,226]]","false",""
"visual-search-circle","178","2.2.0","935525","78921","visual_search_trial","1083","","j","","","","","","","","","","null","red_blue_mix","8","[""images/Red_Circle.png"",""images/Red_Circle.png"",""images/Red_Circle.png""]","true","[[62,233],[250,125],[62,16]]","false",""
"visual-search-circle","179","2.2.0","937586","78921","visual_search_trial","555","","j","","","","","","","","","","null","blue_triangle","8","[""images/Blue_Triangle.png"",""images/Blue_Triangle.png"",""images/Blue_Triangle.png"",""images/Blue_Triangle.png"",""images/Blue_Triangle.png"",""images/Blue_Triangle.png"",""images/Blue_Triangle.png"",""images/Blue_Triangle.png"",""images/Blue_Triangle.png""]","true","[[25,49],[0,131],[33,210],[109,249],[193,229],[244,161],[240,76],[181,13],[96,3]]","false",""
"visual-search-circle","180","2.2.0","939594","78921","visual_search_trial","497","","f","","","","","","","","","","null","red_blue_mix","8","[""images/Red_Triangle.png"",""images/Red_Circle.png"",""images/Blue_Triangle.png"",""images/Blue_Circle.png"",""images/Blue_Circle.png"",""images/Blue_Triangle.png""]","true","[[240,78],[142,1],[26,48],[9,171],[107,248],[223,201]]","true",""
"visual-search-circle","181","2.2.0","952583","78921","visual_search_trial","11476","","j","","","","","","","","","","null","red_blue_mix","9","[""images/Red_Circle.png"",""images/Red_Circle.png"",""images/Red_Circle.png"",""images/Red_Circle.png"",""images/Red_Circle.png"",""images/Red_Circle.png"",""images/Red_Circle.png"",""images/Blue_Circle.png"",""images/Blue_Circle.png""]","true","[[224,49],[153,3],[68,13],[9,76],[5,161],[56,229],[140,249],[216,210],[249,131]]","false",""
"visual-search-circle","182","2.2.0","954586","78921","visual_search_trial","499","","f","","","","","","","","","","null","red_circle","9","[""images/Red_Triangle.png"",""images/Red_Circle.png"",""images/Red_Circle.png"",""images/Red_Circle.png"",""images/Red_Circle.png"",""images/Red_Circle.png""]","true","[[131,249],[236,181],[229,56],[118,0],[13,68],[20,193]]","true",""
"visual-search-circle","183","2.2.0","959345","78921","visual_search_trial","3238","","f","","","","","","","","","","null","blue_triangle","9","[""images/Red_Triangle.png"",""images/Blue_Triangle.png"",""images/Blue_Triangle.png"",""images/Blue_Triangle.png"",""images/Blue_Triangle.png"",""images/Blue_Triangle.png""]","true","[[120,249],[231,191],[235,66],[129,0],[18,58],[14,183]]","true",""
"visual-search-circle","184","2.2.0","961330","78921","visual_search_trial","477","","f","","","","","","","","","","null","red_circle","9","[""images/Red_Triangle.png"",""images/Red_Circle.png"",""images/Red_Circle.png""]","true","[[189,17],[0,122],[185,234]]","true",""
"visual-search-circle","185","2.2.0","972330","78921","visual_search_trial","9495","","f","","","","","","","","","","null","blue_triangle","9","[""images/Red_Triangle.png"",""images/Blue_Triangle.png"",""images/Blue_Triangle.png""]","true","[[249,138],[74,10],[51,226]]","true",""
"visual-search-circle","186","2.2.0","975024","78921","visual_search_trial","1187","","j","","","","","","","","","","null","red_blue_mix","9","[""images/Red_Circle.png"",""images/Blue_Triangle.png"",""images/Blue_Triangle.png""]","true","[[249,138],[74,10],[51,226]]","false",""
"visual-search-circle","187","2.2.0","977956","78921","visual_search_trial","1421","","f","","","","","","","","","","null","red_circle","9","[""images/Red_Triangle.png"",""images/Red_Circle.png"",""images/Red_Circle.png"",""images/Red_Circle.png"",""images/Red_Circle.png"",""images/Red_Circle.png"",""images/Red_Circle.png"",""images/Red_Circle.png"",""images/Red_Circle.png""]","true","[[84,6],[17,60],[1,144],[42,219],[122,249],[203,222],[247,148],[234,64],[169,8]]","true",""
"visual-search-circle","188","2.2.0","981286","78921","visual_search_trial","1827","","f","","","","","","","","","","null","red_blue_mix","9","[""images/Red_Triangle.png"",""images/Blue_Triangle.png"",""images/Blue_Triangle.png"",""images/Red_Circle.png"",""images/Blue_Triangle.png"",""images/Blue_Circle.png"",""images/Blue_Circle.png"",""images/Red_Circle.png"",""images/Red_Circle.png""]","true","[[109,249],[193,229],[244,161],[240,76],[181,13],[96,3],[25,49],[0,131],[33,210]]","true",""
"visual-search-circle","189","2.2.0","983379","78921","visual_search_trial","579","","j","","","","","","","","","","null","red_circle","9","[""images/Red_Circle.png"",""images/Red_Circle.png"",""images/Red_Circle.png"",""images/Red_Circle.png"",""images/Red_Circle.png"",""images/Red_Circle.png""]","true","[[11,177],[114,249],[227,196],[238,72],[135,0],[22,53]]","false",""
"visual-search-circle","190","2.2.0","985372","78921","visual_search_trial","486","","f","","","","","","","","","","null","blue_triangle","9","[""images/Red_Triangle.png"",""images/Blue_Triangle.png"",""images/Blue_Triangle.png"",""images/Blue_Triangle.png"",""images/Blue_Triangle.png"",""images/Blue_Triangle.png"",""images/Blue_Triangle.png"",""images/Blue_Triangle.png"",""images/Blue_Triangle.png""]","true","[[208,32],[129,0],[48,26],[2,99],[14,183],[78,240],[163,243],[231,191],[248,107]]","true",""
"visual-search-circle","191","2.2.0","989428","78921","visual_search_trial","2542","","j","","","","","","","","","","null","red_circle","9","[""images/Red_Circle.png"",""images/Red_Circle.png"",""images/Red_Circle.png""]","true","[[169,8],[1,144],[203,222]]","false",""
"visual-search-circle","192","2.2.0","996195","78921","visual_search_trial","5260","","j","","","","","","","","","","null","blue_triangle","9","[""images/Blue_Triangle.png"",""images/Blue_Triangle.png"",""images/Blue_Triangle.png""]","true","[[135,0],[11,177],[227,196]]","false",""
"visual-search-circle","193","2.2.0","1002662","78921","visual_search_trial","4952","","j","","","","","","","","","","null","red_circle","9","[""images/Red_Circle.png"",""images/Red_Circle.png"",""images/Red_Circle.png"",""images/Red_Circle.png"",""images/Red_Circle.png"",""images/Red_Circle.png"",""images/Red_Circle.png"",""images/Red_Circle.png"",""images/Red_Circle.png""]","true","[[187,16],[103,1],[29,44],[0,125],[29,205],[103,248],[187,233],[242,167],[242,82]]","false",""
"visual-search-circle","194","2.2.0","1005274","78921","visual_search_trial","1105","","f","","","","","","","","","","null","red_blue_mix","9","[""images/Red_Triangle.png"",""images/Blue_Triangle.png"",""images/Blue_Circle.png""]","true","[[210,33],[3,96],[161,244]]","true",""
"visual-search-circle","195","2.2.0","1010146","78921","visual_search_trial","3368","","j","","","","","","","","","","null","blue_triangle","9","[""images/Blue_Triangle.png"",""images/Blue_Triangle.png"",""images/Blue_Triangle.png"",""images/Blue_Triangle.png"",""images/Blue_Triangle.png"",""images/Blue_Triangle.png"",""images/Blue_Triangle.png"",""images/Blue_Triangle.png"",""images/Blue_Triangle.png""]","true","[[33,210],[109,249],[193,229],[244,161],[240,76],[181,13],[96,3],[25,49],[0,131]]","false",""
"visual-search-circle","196","2.2.0","1012554","78921","visual_search_trial","902","","f","","","","","","","","","","null","red_blue_mix","9","[""images/Red_Triangle.png"",""images/Blue_Triangle.png"",""images/Red_Circle.png"",""images/Red_Circle.png"",""images/Blue_Circle.png"",""images/Red_Circle.png""]","true","[[21,55],[12,179],[116,249],[228,194],[237,70],[133,0]]","true",""
"visual-search-circle","197","2.2.0","1017154","78921","visual_search_trial","3085","","j","","","","","","","","","","null","blue_triangle","9","[""images/Blue_Triangle.png"",""images/Blue_Triangle.png"",""images/Blue_Triangle.png"",""images/Blue_Triangle.png"",""images/Blue_Triangle.png"",""images/Blue_Triangle.png""]","true","[[5,88],[33,210],[153,246],[244,161],[216,39],[96,3]]","false",""
"visual-search-circle","198","2.2.0","1023490","78921","visual_search_trial","4834","","j","","","","","","","","","","null","red_blue_mix","9","[""images/Blue_Triangle.png"",""images/Blue_Triangle.png"",""images/Blue_Triangle.png"",""images/Blue_Circle.png"",""images/Blue_Circle.png"",""images/Blue_Triangle.png""]","true","[[3,153],[88,244],[210,216],[246,96],[161,5],[39,33]]","false",""
"html-keyboard-response","199","2.1.0","1193501","78921","break","170011","<p>Great job so far! Please rest for a few seconds before continuing.</p>
                 <p>Press the <strong>R</strong> key on your keyboard to continue.</p>","r","","","","","","","","","","","","","","","","","R"
"visual-search-circle","200","2.2.0","1197358","78921","visual_search_trial","2354","","f","","","","","","","","","","null","red_blue_mix","10","[""images/Red_Triangle.png"",""images/Red_Circle.png"",""images/Blue_Triangle.png"",""images/Red_Circle.png"",""images/Red_Circle.png"",""images/Blue_Circle.png"",""images/Red_Circle.png"",""images/Blue_Circle.png"",""images/Blue_Triangle.png""]","true","[[193,229],[244,161],[240,76],[181,13],[96,3],[25,49],[0,131],[33,210],[109,249]]","true",""
"visual-search-circle","201","2.2.0","1200842","78921","visual_search_trial","1970","","j","","","","","","","","","","null","red_circle","10","[""images/Red_Circle.png"",""images/Red_Circle.png"",""images/Red_Circle.png""]","true","[[5,161],[216,210],[153,3]]","false",""
"visual-search-circle","202","2.2.0","1216200","78921","visual_search_trial","13846","","j","","","","","","","","","","null","red_blue_mix","10","[""images/Blue_Circle.png"",""images/Blue_Circle.png"",""images/Blue_Triangle.png"",""images/Blue_Circle.png"",""images/Blue_Circle.png"",""images/Blue_Triangle.png""]","true","[[18,58],[14,183],[120,249],[231,191],[235,66],[129,0]]","false",""
"visual-search-circle","203","2.2.0","1218672","78921","visual_search_trial","970","","f","","","","","","","","","","null","blue_triangle","10","[""images/Red_Triangle.png"",""images/Blue_Triangle.png"",""images/Blue_Triangle.png"",""images/Blue_Triangle.png"",""images/Blue_Triangle.png"",""images/Blue_Triangle.png""]","true","[[219,42],[101,2],[6,84],[30,207],[148,247],[243,165]]","true",""
"visual-search-circle","204","2.2.0","1221010","78921","visual_search_trial","828","","j","","","","","","","","","","null","red_circle","10","[""images/Red_Circle.png"",""images/Red_Circle.png"",""images/Red_Circle.png"",""images/Red_Circle.png"",""images/Red_Circle.png"",""images/Red_Circle.png"",""images/Red_Circle.png"",""images/Red_Circle.png"",""images/Red_Circle.png""]","true","[[15,64],[2,148],[46,222],[127,249],[207,219],[248,144],[232,60],[165,6],[80,8]]","false",""
"visual-search-circle","205","2.2.0","1223617","78921","visual_search_trial","1101","","j","","","","","","","","","","null","red_blue_mix","10","[""images/Blue_Circle.png"",""images/Red_Circle.png"",""images/Blue_Triangle.png"",""images/Blue_Triangle.png"",""images/Blue_Circle.png"",""images/Red_Circle.png"",""images/Blue_Circle.png"",""images/Blue_Triangle.png"",""images/Blue_Circle.png""]","true","[[62,233],[146,248],[220,205],[250,125],[220,44],[146,1],[62,16],[7,82],[7,167]]","false",""
"visual-search-circle","206","2.2.0","1225626","78921","visual_search_trial","504","","j","","","","","","","","","","null","blue_triangle","10","[""images/Blue_Triangle.png"",""images/Blue_Triangle.png"",""images/Blue_Triangle.png"",""images/Blue_Triangle.png"",""images/Blue_Triangle.png"",""images/Blue_Triangle.png"",""images/Blue_Triangle.png"",""images/Blue_Triangle.png"",""images/Blue_Triangle.png""]","true","[[150,247],[223,201],[249,120],[217,41],[142,1],[58,18],[6,86],[9,171],[66,235]]","false",""
"visual-search-circle","207","2.2.0","1228102","78921","visual_search_trial","970","","f","","","","","","","","","","null","red_blue_mix","10","[""images/Red_Circle.png"",""images/Blue_Circle.png"",""images/Blue_Circle.png""]","false","[[234,185],[122,0],[17,189]]","false",""
"visual-search-circle","208","2.2.0","1230669","78921","visual_search_trial","1054","","f","","","","","","","","","","null","red_circle","10","[""images/Red_Triangle.png"",""images/Red_Circle.png"",""images/Red_Circle.png"",""images/Red_Circle.png"",""images/Red_Circle.png"",""images/Red_Circle.png""]","true","[[243,84],[148,2],[30,42],[6,165],[101,247],[219,207]]","true",""
"visual-search-circle","209","2.2.0","1233080","78921","visual_search_trial","899","","f","","","","","","","","","","null","blue_triangle","10","[""images/Red_Triangle.png"",""images/Blue_Triangle.png"",""images/Blue_Triangle.png"",""images/Blue_Triangle.png"",""images/Blue_Triangle.png"",""images/Blue_Triangle.png"",""images/Blue_Triangle.png"",""images/Blue_Triangle.png"",""images/Blue_Triangle.png""]","true","[[183,14],[99,2],[26,48],[0,129],[32,208],[107,248],[191,231],[243,163],[240,78]]","true",""
"visual-search-circle","210","2.2.0","1237237","78921","visual_search_trial","2654","","f","","","","","","","","","","null","red_blue_mix","10","[""images/Red_Triangle.png"",""images/Blue_Triangle.png"",""images/Blue_Circle.png""]","true","[[9,171],[223,201],[142,1]]","true",""
"visual-search-circle","211","2.2.0","1241600","78921","visual_search_trial","2851","","j","","","","","","","","","","null","red_circle","10","[""images/Red_Circle.png"",""images/Red_Circle.png"",""images/Red_Circle.png"",""images/Red_Circle.png"",""images/Red_Circle.png"",""images/Red_Circle.png""]","true","[[165,243],[247,148],[207,30],[84,6],[2,101],[42,219]]","false",""
"visual-search-circle","212","2.2.0","1244320","78921","visual_search_trial","1214","","j","","","","","","","","","","null","blue_triangle","10","[""images/Blue_Triangle.png"",""images/Blue_Triangle.png"",""images/Blue_Triangle.png""]","true","[[232,189],[127,0],[15,185]]","false",""
"visual-search-circle","213","2.2.0","1247909","78921","visual_search_trial","2075","","f","","","","","","","","","","null","red_blue_mix","10","[""images/Red_Triangle.png"",""images/Blue_Triangle.png"",""images/Blue_Circle.png"",""images/Blue_Triangle.png"",""images/Red_Circle.png"",""images/Blue_Triangle.png""]","true","[[0,131],[68,236],[193,229],[249,118],[181,13],[56,20]]","true",""
"visual-search-circle","214","2.2.0","1252527","78921","visual_search_trial","3108","","j","","","","","","","","","","null","blue_triangle","10","[""images/Blue_Triangle.png"",""images/Blue_Triangle.png"",""images/Blue_Triangle.png"",""images/Blue_Triangle.png"",""images/Blue_Triangle.png"",""images/Blue_Triangle.png""]","true","[[23,198],[138,249],[239,175],[226,51],[111,0],[10,74]]","false",""
"visual-search-circle","215","2.2.0","1255055","78921","visual_search_trial","1025","","f","","","","","","","","","","null","red_circle","10","[""images/Red_Triangle.png"",""images/Red_Circle.png"",""images/Red_Circle.png"",""images/Red_Circle.png"",""images/Red_Circle.png"",""images/Red_Circle.png"",""images/Red_Circle.png"",""images/Red_Circle.png"",""images/Red_Circle.png""]","true","[[243,163],[240,78],[183,14],[99,2],[26,48],[0,129],[32,208],[107,248],[191,231]]","true",""
"visual-search-circle","216","2.2.0","1258134","78921","visual_search_trial","1576","","f","","","","","","","","","","null","blue_triangle","10","[""images/Red_Triangle.png"",""images/Blue_Triangle.png"",""images/Blue_Triangle.png""]","true","[[249,120],[58,18],[66,235]]","true",""
"visual-search-circle","217","2.2.0","1261002","78921","visual_search_trial","1353","","f","","","","","","","","","","null","red_circle","10","[""images/Red_Triangle.png"",""images/Red_Circle.png"",""images/Red_Circle.png""]","true","[[234,185],[122,0],[17,189]]","true",""
"visual-search-circle","218","2.2.0","1264200","78921","visual_search_trial","1692","","f","","","","","","","","","","null","red_circle","11","[""images/Red_Triangle.png"",""images/Red_Circle.png"",""images/Red_Circle.png"",""images/Red_Circle.png"",""images/Red_Circle.png"",""images/Red_Circle.png"",""images/Red_Circle.png"",""images/Red_Circle.png"",""images/Red_Circle.png""]","true","[[82,7],[16,62],[1,146],[44,220],[125,250],[205,220],[248,146],[233,62],[167,7]]","true",""
"visual-search-circle","219","2.2.0","1269196","78921","visual_search_trial","3483","","f","","","","","","","","","","null","red_blue_mix","11","[""images/Red_Triangle.png"",""images/Blue_Circle.png"",""images/Blue_Triangle.png"",""images/Blue_Triangle.png"",""images/Red_Circle.png"",""images/Blue_Triangle.png""]","true","[[41,217],[163,243],[247,150],[208,32],[86,6],[2,99]]","true",""
"visual-search-circle","220","2.2.0","1271831","78921","visual_search_trial","1126","","j","","","","","","","","","","null","red_circle","11","[""images/Red_Circle.png"",""images/Red_Circle.png"",""images/Red_Circle.png"",""images/Red_Circle.png"",""images/Red_Circle.png"",""images/Red_Circle.png"",""images/Red_Circle.png"",""images/Red_Circle.png"",""images/Red_Circle.png""]","true","[[9,76],[5,161],[56,229],[140,249],[216,210],[249,131],[224,49],[153,3],[68,13]]","false",""
"visual-search-circle","221","2.2.0","1275828","78921","visual_search_trial","2491","","j","","","","","","","","","","null","blue_triangle","11","[""images/Blue_Triangle.png"",""images/Blue_Triangle.png"",""images/Blue_Triangle.png"",""images/Blue_Triangle.png"",""images/Blue_Triangle.png"",""images/Blue_Triangle.png""]","true","[[173,240],[249,140],[200,25],[76,9],[0,109],[49,224]]","false",""
"visual-search-circle","222","2.2.0","1278071","78921","visual_search_trial","736","","j","","","","","","","","","","null","red_circle","11","[""images/Red_Circle.png"",""images/Red_Circle.png"",""images/Red_Circle.png""]","true","[[171,9],[1,142],[201,223]]","false",""
"visual-search-circle","223","2.2.0","1280637","78921","visual_search_trial","1057","","f","","","","","","","","","","null","red_blue_mix","11","[""images/Red_Triangle.png"",""images/Blue_Circle.png"",""images/Red_Circle.png""]","true","[[0,138],[198,226],[175,10]]","true",""
"visual-search-circle","224","2.2.0","1283197","78921","visual_search_trial","1053","","f","","","","","","","","","","null","blue_triangle","11","[""images/Red_Triangle.png"",""images/Blue_Triangle.png"",""images/Blue_Triangle.png"",""images/Blue_Triangle.png"",""images/Blue_Triangle.png"",""images/Blue_Triangle.png"",""images/Blue_Triangle.png"",""images/Blue_Triangle.png"",""images/Blue_Triangle.png""]","true","[[94,246],[179,237],[239,175],[245,90],[194,21],[111,0],[35,38],[0,116],[23,198]]","true",""
"visual-search-circle","225","2.2.0","1285655","78921","visual_search_trial","954","","j","","","","","","","","","","null","red_blue_mix","11","[""images/Blue_Circle.png"",""images/Red_Circle.png"",""images/Blue_Circle.png""]","true","[[214,38],[4,90],[155,246]]","false",""
"visual-search-circle","226","2.2.0","1288475","78921","visual_search_trial","1307","","f","","","","","","","","","","null","blue_triangle","11","[""images/Red_Triangle.png"",""images/Blue_Triangle.png"",""images/Blue_Triangle.png""]","true","[[118,0],[20,193],[236,181]]","true",""
"visual-search-circle","227","2.2.0","1292428","78921","visual_search_trial","2449","","f","","","","","","","","","","null","red_circle","11","[""images/Red_Triangle.png"",""images/Red_Circle.png"",""images/Red_Circle.png"",""images/Red_Circle.png"",""images/Red_Circle.png"",""images/Red_Circle.png""]","true","[[4,157],[92,245],[213,213],[245,92],[157,4],[36,36]]","true",""
"visual-search-circle","228","2.2.0","1307980","78921","visual_search_trial","14036","","j","","","","","","","","","","null","red_blue_mix","11","[""images/Blue_Triangle.png"",""images/Red_Circle.png"",""images/Blue_Triangle.png"",""images/Blue_Triangle.png"",""images/Blue_Circle.png"",""images/Blue_Circle.png"",""images/Red_Circle.png"",""images/Red_Circle.png"",""images/Blue_Triangle.png""]","true","[[116,249],[198,226],[246,155],[237,70],[175,10],[90,4],[21,55],[0,138],[38,214]]","false",""
"visual-search-circle","229","2.2.0","1310338","78921","visual_search_trial","841","","j","","","","","","","","","","null","blue_triangle","11","[""images/Blue_Triangle.png"",""images/Blue_Triangle.png"",""images/Blue_Triangle.png""]","true","[[4,92],[157,245],[213,36]]","false",""
"visual-search-circle","230","2.2.0","1312451","78921","visual_search_trial","598","","j","","","","","","","","","","null","red_circle","11","[""images/Red_Circle.png"",""images/Red_Circle.png"",""images/Red_Circle.png"",""images/Red_Circle.png"",""images/Red_Circle.png"",""images/Red_Circle.png""]","true","[[167,7],[44,29],[1,146],[82,242],[205,220],[248,103]]","false",""
"visual-search-circle","231","2.2.0","1314959","78921","visual_search_trial","999","","f","","","","","","","","","","null","blue_triangle","11","[""images/Red_Triangle.png"",""images/Blue_Triangle.png"",""images/Blue_Triangle.png"",""images/Blue_Triangle.png"",""images/Blue_Triangle.png"",""images/Blue_Triangle.png""]","true","[[27,46],[8,169],[105,248],[222,203],[241,80],[144,1]]","true",""
"visual-search-circle","232","2.2.0","1317393","78921","visual_search_trial","923","","f","","","","","","","","","","null","red_circle","11","[""images/Red_Triangle.png"",""images/Red_Circle.png"",""images/Red_Circle.png""]","true","[[46,27],[80,241],[248,105]]","true",""
"visual-search-circle","233","2.2.0","1321923","78921","visual_search_trial","3027","","f","","","","","","","","","","null","red_blue_mix","11","[""images/Red_Triangle.png"",""images/Red_Circle.png"",""images/Red_Circle.png"",""images/Blue_Circle.png"",""images/Blue_Triangle.png"",""images/Red_Circle.png"",""images/Blue_Circle.png"",""images/Blue_Circle.png"",""images/Red_Circle.png""]","true","[[101,2],[27,46],[0,127],[30,207],[105,248],[189,232],[243,165],[241,80],[185,15]]","true",""
"visual-search-circle","234","2.2.0","1326666","78921","visual_search_trial","3241","","j","","","","","","","","","","null","blue_triangle","11","[""images/Blue_Triangle.png"",""images/Blue_Triangle.png"",""images/Blue_Triangle.png"",""images/Blue_Triangle.png"",""images/Blue_Triangle.png"",""images/Blue_Triangle.png"",""images/Blue_Triangle.png"",""images/Blue_Triangle.png"",""images/Blue_Triangle.png""]","true","[[243,165],[241,80],[185,15],[101,2],[27,46],[0,127],[30,207],[105,248],[189,232]]","false",""
