"trial_type","trial_index","plugin_version","time_elapsed","sona_id","phase","rt","stimulus","response","consented","required_key","view_history","question_order","success","timeout","failed_images","failed_audio","failed_video","set_size","distractor_type","block","stimuli_list","correct","locations","target_present","break_key"
"pavlovia","0","null","811","78409","","","","","","","","","","","","","","","","","","","","",""
"html-button-response","1","2.1.0","10895","78409","informed_consent","10080","
    <div style=""max-width: 900px; margin: 0 auto; padding: 20px; text-align: left; line-height: 1.6;"">
      <h1 style=""text-align: center; color: #333; font-size: 24px; margin-bottom: 10px; font-weight: bold;"">
        INFORMED CONSENT INFORMATION
      </h1>
      <h2 style=""text-align: center; color: #333; font-size: 22px; margin-bottom: 20px; font-weight: bold;"">
        FOR RESEARCH PARTICIPATION
      </h2>
      
      <p style=""margin-bottom: 10px;""><strong>Study Title:</strong> The Effects of Mindfulness and Attention on Life Satisfaction and Memory</p>
      <p style=""margin-bottom: 10px;""><strong>Principal Investigator:</strong> Ella Bremmer</p>
      <p style=""margin-bottom: 10px;""><strong>Co-Principal Investigator:</strong> Dr. Gregory Cox</p>
      <p style=""margin-bottom: 20px;""><strong>IRB Study Number:</strong></p>

      <p style=""margin-bottom: 15px;"">I am a student at the University at Albany, in the Department of Psychology. I am planning to conduct a research study, which I invite you to take part in.</p>
      
      <p style=""margin-bottom: 25px;"">This form has important information about the reasons for doing this study, what we will ask you to do, and the way we would like to use the information we collect about you.</p>

      <h3 style=""color: #333; font-size: 18px; margin-top: 25px; margin-bottom: 10px; font-weight: bold;"">
        Why are you doing this study?
      </h3>
      <p style=""margin-bottom: 15px;"">You are being asked to participate in a research study that aims to understand if there is a relationship between mindfulness, the ability to pay attention, and life satisfaction.</p>
      
      <p style=""margin-bottom: 25px;"">The purpose of this study is to investigate if having better control over one's attention influences overall life satisfaction. Your participation will help us better understand if mindfulness and attention do have a significant effect on life satisfaction (i.e., how people feel about their lives overall). Then you will be asked to perform a conjunction visual search task to test your capacity to direct your attention over a sustained period.</p>

      <h3 style=""color: #333; font-size: 18px; margin-top: 25px; margin-bottom: 10px; font-weight: bold;"">
        Why am I eligible to participate in this study?
      </h3>
      <p style=""margin-bottom: 25px;"">You are eligible to participate because you are a student at UAlbany, are at least 18 years old, and are proficient in English.</p>

      <h3 style=""color: #333; font-size: 18px; margin-top: 25px; margin-bottom: 10px; font-weight: bold;"">
        What will I do if I choose to be in this study?
      </h3>
      <p style=""margin-bottom: 10px;"">If you choose to take part in our study, you will do the following:</p>
      <p style=""margin-bottom: 8px; margin-left: 20px;"">1. Read and agree to the informed consent.</p>
      <p style=""margin-bottom: 8px; margin-left: 40px;"">a. If you choose not to agree to the informed consent, you will be taken back to the SONA site.</p>
      <p style=""margin-bottom: 8px; margin-left: 20px;"">2. Complete a demographic questionnaire that asks about your age, English proficiency, gender, and race.</p>
      <p style=""margin-bottom: 8px; margin-left: 20px;"">3. Read instructions for the visual search task, which asks you to indicate if a target (a red triangle) is present among various other colored shapes. You should press the ""F"" key if a red triangle is present, or the ""J"" key if the target is absent.</p>
      <p style=""margin-bottom: 8px; margin-left: 20px;"">4. You will be asked to respond to 270 visual search trials, whith the opportunity to take short breaks as you go</p>
      <p style=""margin-bottom: 8px; margin-left: 20px;"">5. You will complete the Mindfulness Attention Awareness Scale (MAAS), the Satisfaction With Life Scale (SWLS), and the Big Five Inventory.</p>
      <p style=""margin-bottom: 25px; margin-left: 20px;"">6.	After all questionnaires are completed, participants will be thanked for their time and will be provided the study debriefing. Following the debriefing, you will be sent back to the SONA research site.</p>

      <h3 style=""color: #333; font-size: 18px; margin-top: 25px; margin-bottom: 10px; font-weight: bold;"">
        For how long will I participate?
      </h3>
      <p style=""margin-bottom: 25px;"">This study is a single online session that you can complete on a computer. The study can be completed in less than 30 minutes but could require as long as 45 minutes to complete.</p>

      <h3 style=""color: #333; font-size: 18px; margin-top: 25px; margin-bottom: 10px; font-weight: bold;"">
        Where will I need to go to participate?
      </h3>
      <p style=""margin-bottom: 25px;"">All study procedures will take place online and can be completed wherever you have internet connection.</p>

      <h3 style=""color: #333; font-size: 18px; margin-top: 25px; margin-bottom: 10px; font-weight: bold;"">
        Are there any costs I should be aware of?
      </h3>
      <p style=""margin-bottom: 25px;"">Participation is not expected to incur cost to participants. Free internet access is available anywhere on campus and in the university library.</p>

      <h3 style=""color: #333; font-size: 18px; margin-top: 25px; margin-bottom: 10px; font-weight: bold;"">
        What are the possible risks or discomforts?
      </h3>
      <p style=""margin-bottom: 15px;"">As with all research, there is a chance that confidentiality of the information we collect from you could be breached – we will take steps to minimize this risk, as discussed in more detail below.</p>
      
      <p style=""margin-bottom: 25px;"">The risks associated with participating in this study are minimal; however, you may experience mild discomfort when reflecting on your mindfulness or life satisfaction when answering questionnaires in the study. To help minimize this, you can withdraw from the study at any time without any consequences. The study will take place online, and you will have the opportunity to take breaks while completing the survey to reduce the risk of eye strain associated with the use of electronic devices.</p>

      <h3 style=""color: #333; font-size: 18px; margin-top: 25px; margin-bottom: 10px; font-weight: bold;"">
        What are the possible benefits for me or others?
      </h3>
      <p style=""margin-bottom: 25px;"">While there are no direct personal benefits to participants of this study, you may find value in reflecting on your mindfulness, attention, and its impact on life satisfaction by completing this survey. The data you contribute may help advance society's understanding of how mindfulness and attention relate to overall well-being, potentially informing future programs or interventions aimed at improving student mental health, attention, and life satisfaction.</p>

      <h3 style=""color: #333; font-size: 18px; margin-top: 25px; margin-bottom: 10px; font-weight: bold;"">
        Will I receive compensation for my participation?
      </h3>
      <p style=""margin-bottom: 25px;"">SONA partial class credit will be awarded via the Psychology Department SONA research pool after you complete the survey in its entirety. Participants who withdraw before completing the survey will not receive partial credit. You will not receive monetary compensation for your participation in this study.</p>

      <h3 style=""color: #333; font-size: 18px; margin-top: 25px; margin-bottom: 10px; font-weight: bold;"">
        How will you protect the information you collect about me, and how will that information be shared?
      </h3>
      <p style=""margin-bottom: 15px;"">Results of this study may be used in publications and presentations. Your data will be handled as confidentially as possible, and no identifiable information will be collected to link your data back to you. If results of this study are published or presented, only de-identified summaries of data will be used.</p>
      
      <p style=""margin-bottom: 25px;"">To minimize the risks to confidentiality, all data will be collected anonymously via Pavlovia.org which uses encryption to protect information (https://pavlovia.org/docs/home/ethics). Only the student researcher (Ella Bremmer), mentor (Pierce Johnson), and faculty advisor (Gregory Cox) will have password-protected access to the data. Data will be stored on secure, university approved computers.</p>

      <h3 style=""color: #333; font-size: 18px; margin-top: 25px; margin-bottom: 10px; font-weight: bold;"">
        Will my data be used in future research?
      </h3>
      <p style=""margin-bottom: 25px;"">No personal identifiers will be collected in the data you provide us. Data will not be used in future research, and will be deleted after the required retention period.</p>

      <h3 style=""color: #333; font-size: 18px; margin-top: 25px; margin-bottom: 10px; font-weight: bold;"">
        What are my rights as a research participant?
      </h3>
      <p style=""margin-bottom: 15px;"">Participation in this study is voluntary. You do not have to answer any question you do not want to answer. If at any time and for any reason, you would prefer not to participate in this study, please feel free not to. If at any time you would like to stop participating, you are welcome to stop. You can take a break or stop altogether. You may withdraw from this study at any time, and you will not be penalized in any way for deciding to stop participation.</p>
      
      <p style=""margin-bottom: 25px;"">If you decide to withdraw from this study, any information collected from you before withdrawing will not be used, and your data will be deleted.</p>

      <h3 style=""color: #333; font-size: 18px; margin-top: 25px; margin-bottom: 10px; font-weight: bold;"">
        What if I am a University at Albany student or employee?
      </h3>
      <p style=""margin-bottom: 25px;"">You may choose not to participate or to stop participating in this research at any time. This will not affect your class standing, grades, employment, or any other aspects of your relationship with the University at Albany.</p>

      <h3 style=""color: #333; font-size: 18px; margin-top: 25px; margin-bottom: 10px; font-weight: bold;"">
        Who can I contact if I have questions or concerns about this research study?
      </h3>
      <p style=""margin-bottom: 15px;"">If you have questions, please feel free to stop and email the investigator, Ella Bremmer (ebremmer@albany.edu) or advisors, Pierce Johnson (pjohnson4@albany.edu) and Dr. Greg Cox (gecox@albany.edu). If you have questions later, you may also contact the researchers.</p>
      
      <p style=""margin-bottom: 10px;"">If you have any questions about your rights as a participant in this research, you can contact the following office at the University at Albany:</p>
      
      <p style=""margin-bottom: 5px; margin-left: 20px;"">Institutional Review Board</p>
      <p style=""margin-bottom: 5px; margin-left: 20px;"">University at Albany</p>
      <p style=""margin-bottom: 5px; margin-left: 20px;"">Office of Regulatory and Research Compliance</p>
      <p style=""margin-bottom: 5px; margin-left: 20px;"">1400 Washington Ave, Biology 227</p>
      <p style=""margin-bottom: 5px; margin-left: 20px;"">Albany, NY 12222</p>
      <p style=""margin-bottom: 5px; margin-left: 20px;"">Phone: 1-866-857-5459</p>
      <p style=""margin-bottom: 25px; margin-left: 20px;"">Email: rco@albany.edu</p>

      <h3 style=""color: #333; font-size: 18px; margin-top: 30px; margin-bottom: 10px; font-weight: bold;"">
        Consent
      </h3>
      <p style=""margin-bottom: 20px;"">I have read this form and the research study has been explained to me. I have been given the opportunity to ask questions and my questions have been answered. If I have additional questions, I have been told whom to contact. I agree to participate in the research study described above. I understand that I have the opportunity to download and save a copy of this form for my records.</p>

      <div style=""background-color: #f9f9f9; border: 2px solid #4CAF50; border-radius: 5px; padding: 20px; margin-top: 20px; margin-bottom: 20px;"">
        <p style=""margin-bottom: 15px; font-weight: bold;"">To save a copy of this consent form for your records, press Ctrl+P (Windows/Linux) or Cmd+P (Mac) and select ""Save as PDF"".</p>
        <p style=""margin-bottom: 0; font-weight: bold;"">By clicking ""I Agree"" below, I confirm that I agree to participate in the research study described above, and that doing so serves as my written signature consenting to take part in the study.</p>
      </div>
    </div>
  ","0","true","","","","","","","","","","","","","","","",""
"instructions","3","2.1.0","13177","78409","intro_instructions","2281","","","","f","[{""page_index"":0,""viewing_time"":2281}]","","","","","","","","","","","","","",""
"html-keyboard-response","4","2.1.0","15179","78409","intermediate_slide_demo","null","<p style=""font-size:4vw"">Demographic Questionnaire</p>","null","","","","","","","","","","","","","","","","",""
"survey-multi-choice","5","2.1.0","20364","78409","demographics_english","5182","","{""english"":""Strongly agree""}","","","","[0]","","","","","","","","","","","","",""
"survey-text","7","2.1.0","26264","78409","demographics_age","5891","","{""age"":""18""}","","","","","","","","","","","","","","","","",""
"survey-multi-select","9","2.1.0","30296","78409","demographics_gender","4030","","{""gender"":[""Woman""]}","","","","[0]","","","","","","","","","","","","",""
"survey-multi-choice","11","2.1.0","33862","78409","demographics_race","3564","","{""race"":""Hispanic or Latino""}","","","","[0]","","","","","","","","","","","","",""
"html-keyboard-response","12","2.1.0","35865","78409","intermediate_slide_VS","null","<p style=""font-size:4vw"">Visual Search Task</p>","null","","","","","","","","","","","","","","","","",""
"preload","13","2.1.0","36056","78409","image_preload","","","","","","","","true","false","[]","[]","[]","","","","","","","",""
"html-button-response","14","2.1.0","46961","78409","vs_instructions","10905","<p>On the following screens, you will see a series of colored shapes (triangles, squares, and circles) appear.</p>
    <p>Please Press 'F' if there <strong>is</strong> a red triangle among the shapes you see.</p>
    <p>Press 'J' if there is <strong>not</strong> a red triangle among the shapes you see.</p>","0","","","","","","","","","","","","","","","","",""
"visual-search-circle","15","2.2.0","51133","78409","visual_search_trial","2666","","j","","","","","","","","","","null","red_circle","0","[""images/Red_Circle.png"",""images/Red_Circle.png"",""images/Red_Circle.png"",""images/Red_Circle.png"",""images/Red_Circle.png"",""images/Red_Circle.png"",""images/Red_Circle.png"",""images/Red_Circle.png"",""images/Red_Circle.png""]","true","[[194,21],[111,0],[35,38],[0,116],[23,198],[94,246],[179,237],[239,175],[245,90]]","false",""
"visual-search-circle","16","2.2.0","55373","78409","visual_search_trial","2737","","j","","","","","","","","","","null","red_blue_mix","0","[""images/Red_Circle.png"",""images/Red_Circle.png"",""images/Blue_Triangle.png"",""images/Blue_Triangle.png"",""images/Blue_Triangle.png"",""images/Blue_Triangle.png""]","true","[[210,216],[246,96],[161,5],[39,33],[3,153],[88,244]]","false",""
"visual-search-circle","17","2.2.0","57922","78409","visual_search_trial","1045","","j","","","","","","","","","","null","blue_triangle","0","[""images/Blue_Triangle.png"",""images/Blue_Triangle.png"",""images/Blue_Triangle.png"",""images/Blue_Triangle.png"",""images/Blue_Triangle.png"",""images/Blue_Triangle.png""]","true","[[11,72],[22,196],[135,249],[238,177],[227,53],[114,0]]","false",""
"visual-search-circle","18","2.2.0","65515","78409","visual_search_trial","6090","","j","","","","","","","","","","null","red_circle","0","[""images/Red_Circle.png"",""images/Red_Circle.png"",""images/Red_Circle.png""]","true","[[207,30],[2,101],[165,243]]","false",""
"visual-search-circle","19","2.2.0","69372","78409","visual_search_trial","2354","","f","","","","","","","","","","null","blue_triangle","0","[""images/Red_Triangle.png"",""images/Blue_Triangle.png"",""images/Blue_Triangle.png""]","true","[[111,249],[239,74],[23,51]]","true",""
"visual-search-circle","20","2.2.0","72023","78409","visual_search_trial","1145","","j","","","","","","","","","","null","red_circle","0","[""images/Red_Circle.png"",""images/Red_Circle.png"",""images/Red_Circle.png"",""images/Red_Circle.png"",""images/Red_Circle.png"",""images/Red_Circle.png""]","true","[[248,105],[169,8],[46,27],[1,144],[80,241],[203,222]]","false",""
"visual-search-circle","21","2.2.0","74434","78409","visual_search_trial","907","","j","","","","","","","","","","null","blue_triangle","0","[""images/Blue_Triangle.png"",""images/Blue_Triangle.png"",""images/Blue_Triangle.png"",""images/Blue_Triangle.png"",""images/Blue_Triangle.png"",""images/Blue_Triangle.png"",""images/Blue_Triangle.png"",""images/Blue_Triangle.png"",""images/Blue_Triangle.png""]","true","[[29,205],[103,248],[187,233],[242,167],[242,82],[187,16],[103,1],[29,44],[0,124]]","false",""
"visual-search-circle","22","2.2.0","77055","78409","visual_search_trial","1116","","j","","","","","","","","","","null","red_blue_mix","0","[""images/Red_Circle.png"",""images/Blue_Circle.png"",""images/Blue_Triangle.png"",""images/Blue_Triangle.png"",""images/Blue_Circle.png"",""images/Red_Circle.png"",""images/Red_Circle.png"",""images/Red_Circle.png"",""images/Blue_Circle.png""]","true","[[148,2],[64,15],[8,80],[6,165],[60,232],[144,248],[219,207],[249,127],[222,46]]","false",""
"visual-search-circle","23","2.2.0","79315","78409","visual_search_trial","755","","j","","","","","","","","","","null","blue_triangle","0","[""images/Blue_Triangle.png"",""images/Blue_Triangle.png"",""images/Blue_Triangle.png""]","true","[[165,6],[2,148],[207,219]]","false",""
"visual-search-circle","24","2.2.0","82114","78409","visual_search_trial","1294","","f","","","","","","","","","","null","red_circle","0","[""images/Red_Triangle.png"",""images/Red_Circle.png"",""images/Red_Circle.png"",""images/Red_Circle.png"",""images/Red_Circle.png"",""images/Red_Circle.png"",""images/Red_Circle.png"",""images/Red_Circle.png"",""images/Red_Circle.png""]","true","[[0,140],[39,216],[118,249],[200,224],[246,153],[236,68],[173,9],[88,5],[20,56]]","true",""
"visual-search-circle","25","2.2.0","84859","78409","visual_search_trial","1241","","f","","","","","","","","","","null","red_blue_mix","0","[""images/Red_Triangle.png"",""images/Red_Circle.png"",""images/Blue_Circle.png"",""images/Red_Circle.png"",""images/Red_Circle.png"",""images/Red_Circle.png""]","true","[[42,219],[165,243],[247,148],[207,30],[84,6],[2,101]]","true",""
"visual-search-circle","26","2.2.0","87275","78409","visual_search_trial","913","","f","","","","","","","","","","null","red_circle","0","[""images/Red_Triangle.png"",""images/Red_Circle.png"",""images/Red_Circle.png""]","true","[[249,127],[64,15],[60,232]]","true",""
"visual-search-circle","27","2.2.0","89574","78409","visual_search_trial","796","","f","","","","","","","","","","null","red_blue_mix","0","[""images/Red_Triangle.png"",""images/Blue_Triangle.png"",""images/Blue_Triangle.png""]","true","[[0,122],[185,234],[189,17]]","true",""
"visual-search-circle","28","2.2.0","92596","78409","visual_search_trial","1517","","f","","","","","","","","","","null","blue_triangle","0","[""images/Red_Triangle.png"",""images/Blue_Triangle.png"",""images/Blue_Triangle.png"",""images/Blue_Triangle.png"",""images/Blue_Triangle.png"",""images/Blue_Triangle.png"",""images/Blue_Triangle.png"",""images/Blue_Triangle.png"",""images/Blue_Triangle.png""]","true","[[92,4],[22,53],[0,135],[36,213],[114,249],[196,227],[245,157],[238,72],[177,11]]","true",""
"visual-search-circle","29","2.2.0","94832","78409","visual_search_trial","733","","j","","","","","","","","","","null","red_blue_mix","0","[""images/Blue_Circle.png"",""images/Red_Circle.png"",""images/Blue_Circle.png""]","true","[[42,30],[84,243],[247,101]]","false",""
"visual-search-circle","30","2.2.0","96878","78409","visual_search_trial","543","","f","","","","","","","","","","null","red_circle","0","[""images/Red_Triangle.png"",""images/Red_Circle.png"",""images/Red_Circle.png"",""images/Red_Circle.png"",""images/Red_Circle.png"",""images/Red_Circle.png""]","true","[[32,41],[6,163],[99,247],[217,208],[243,86],[150,2]]","true",""
"visual-search-circle","31","2.2.0","99904","78409","visual_search_trial","1522","","f","","","","","","","","","","null","red_blue_mix","0","[""images/Red_Triangle.png"",""images/Red_Circle.png"",""images/Red_Circle.png"",""images/Red_Circle.png"",""images/Red_Circle.png"",""images/Red_Circle.png"",""images/Blue_Circle.png"",""images/Red_Circle.png"",""images/Red_Circle.png""]","true","[[4,159],[55,228],[138,249],[214,211],[249,133],[226,51],[155,3],[70,12],[10,74]]","true",""
"visual-search-circle","32","2.2.0","102263","78409","visual_search_trial","853","","f","","","","","","","","","","null","blue_triangle","0","[""images/Red_Triangle.png"",""images/Blue_Triangle.png"",""images/Blue_Triangle.png"",""images/Blue_Triangle.png"",""images/Blue_Triangle.png"",""images/Blue_Triangle.png""]","true","[[122,249],[232,189],[234,64],[127,0],[17,60],[15,185]]","true",""
"visual-search-circle","33","2.2.0","104485","78409","visual_search_trial","717","","f","","","","","","","","","","null","red_blue_mix","1","[""images/Red_Triangle.png"",""images/Blue_Triangle.png"",""images/Red_Circle.png"",""images/Blue_Triangle.png"",""images/Blue_Triangle.png"",""images/Red_Circle.png"",""images/Blue_Triangle.png"",""images/Red_Circle.png"",""images/Blue_Circle.png""]","true","[[35,211],[111,249],[194,228],[245,159],[239,74],[179,12],[94,3],[23,51],[0,133]]","true",""
"visual-search-circle","34","2.2.0","106640","78409","visual_search_trial","651","","j","","","","","","","","","","null","red_circle","1","[""images/Red_Circle.png"",""images/Red_Circle.png"",""images/Red_Circle.png"",""images/Red_Circle.png"",""images/Red_Circle.png"",""images/Red_Circle.png""]","true","[[6,84],[30,207],[148,247],[243,165],[219,42],[101,2]]","false",""
"visual-search-circle","35","2.2.0","108841","78409","visual_search_trial","697","","j","","","","","","","","","","null","blue_triangle","1","[""images/Blue_Triangle.png"",""images/Blue_Triangle.png"",""images/Blue_Triangle.png"",""images/Blue_Triangle.png"",""images/Blue_Triangle.png"",""images/Blue_Triangle.png""]","true","[[171,9],[48,26],[1,142],[78,240],[201,223],[248,107]]","false",""
"visual-search-circle","36","2.2.0","111217","78409","visual_search_trial","873","","f","","","","","","","","","","null","red_blue_mix","1","[""images/Red_Triangle.png"",""images/Blue_Triangle.png"",""images/Red_Circle.png""]","true","[[155,246],[214,38],[4,90]]","true",""
"visual-search-circle","37","2.2.0","113468","78409","visual_search_trial","749","","j","","","","","","","","","","null","red_circle","1","[""images/Red_Circle.png"",""images/Red_Circle.png"",""images/Red_Circle.png""]","true","[[161,244],[210,33],[3,96]]","false",""
"visual-search-circle","38","2.2.0","115569","78409","visual_search_trial","598","","j","","","","","","","","","","null","blue_triangle","1","[""images/Blue_Triangle.png"",""images/Blue_Triangle.png"",""images/Blue_Triangle.png""]","true","[[23,198],[239,175],[111,0]]","false",""
"visual-search-circle","39","2.2.0","117676","78409","visual_search_trial","602","","j","","","","","","","","","","null","red_blue_mix","1","[""images/Blue_Triangle.png"",""images/Blue_Circle.png"",""images/Blue_Circle.png"",""images/Blue_Triangle.png"",""images/Blue_Triangle.png"",""images/Blue_Triangle.png"",""images/Blue_Triangle.png"",""images/Blue_Circle.png"",""images/Blue_Circle.png""]","true","[[248,144],[232,60],[165,6],[80,8],[15,64],[2,148],[46,222],[127,249],[207,219]]","false",""
"visual-search-circle","40","2.2.0","119818","78409","visual_search_trial","639","","f","","","","","","","","","","null","blue_triangle","1","[""images/Red_Triangle.png"",""images/Blue_Triangle.png"",""images/Blue_Triangle.png""]","true","[[48,26],[78,240],[248,107]]","true",""
"visual-search-circle","41","2.2.0","122293","78409","visual_search_trial","970","","f","","","","","","","","","","null","red_circle","1","[""images/Red_Triangle.png"",""images/Red_Circle.png"",""images/Red_Circle.png"",""images/Red_Circle.png"",""images/Red_Circle.png"",""images/Red_Circle.png"",""images/Red_Circle.png"",""images/Red_Circle.png"",""images/Red_Circle.png""]","true","[[27,203],[101,247],[185,234],[241,169],[243,84],[189,17],[105,1],[30,42],[0,122]]","true",""
"visual-search-circle","42","2.2.0","124563","78409","visual_search_trial","766","","f","","","","","","","","","","null","red_blue_mix","1","[""images/Red_Triangle.png"",""images/Red_Circle.png"",""images/Blue_Triangle.png"",""images/Red_Circle.png"",""images/Blue_Triangle.png"",""images/Blue_Triangle.png""]","true","[[8,169],[105,248],[222,203],[241,80],[144,1],[27,46]]","true",""
"visual-search-circle","43","2.2.0","126710","78409","visual_search_trial","642","","f","","","","","","","","","","null","red_circle","1","[""images/Red_Triangle.png"",""images/Red_Circle.png"",""images/Red_Circle.png"",""images/Red_Circle.png"",""images/Red_Circle.png"",""images/Red_Circle.png""]","true","[[7,82],[29,205],[146,248],[242,167],[220,44],[103,1]]","true",""
"visual-search-circle","44","2.2.0","128817","78409","visual_search_trial","604","","f","","","","","","","","","","null","blue_triangle","1","[""images/Red_Triangle.png"",""images/Blue_Triangle.png"",""images/Blue_Triangle.png"",""images/Blue_Triangle.png"",""images/Blue_Triangle.png"",""images/Blue_Triangle.png""]","true","[[84,6],[2,101],[42,219],[165,243],[247,148],[207,30]]","true",""
"visual-search-circle","45","2.2.0","130905","78409","visual_search_trial","584","","j","","","","","","","","","","null","red_circle","1","[""images/Red_Circle.png"",""images/Red_Circle.png"",""images/Red_Circle.png"",""images/Red_Circle.png"",""images/Red_Circle.png"",""images/Red_Circle.png"",""images/Red_Circle.png"",""images/Red_Circle.png"",""images/Red_Circle.png""]","true","[[249,129],[223,48],[150,2],[66,14],[9,78],[6,163],[58,231],[142,248],[217,208]]","false",""
"visual-search-circle","46","2.2.0","133066","78409","visual_search_trial","657","","j","","","","","","","","","","null","red_blue_mix","1","[""images/Red_Circle.png"",""images/Blue_Triangle.png"",""images/Blue_Triangle.png""]","true","[[181,13],[0,131],[193,229]]","false",""
"visual-search-circle","47","2.2.0","135368","78409","visual_search_trial","797","","f","","","","","","","","","","null","blue_triangle","1","[""images/Red_Triangle.png"",""images/Blue_Triangle.png"",""images/Blue_Triangle.png"",""images/Blue_Triangle.png"",""images/Blue_Triangle.png"",""images/Blue_Triangle.png"",""images/Blue_Triangle.png"",""images/Blue_Triangle.png"",""images/Blue_Triangle.png""]","true","[[245,159],[239,74],[179,12],[94,3],[23,51],[0,133],[35,211],[111,249],[194,228]]","true",""
"visual-search-circle","48","2.2.0","141355","78409","visual_search_trial","4483","","j","","","","","","","","","","null","red_blue_mix","1","[""images/Blue_Circle.png"",""images/Blue_Circle.png"",""images/Red_Circle.png"",""images/Blue_Triangle.png"",""images/Blue_Triangle.png"",""images/Red_Circle.png""]","true","[[216,39],[96,3],[5,88],[33,210],[153,246],[244,161]]","false",""
"visual-search-circle","49","2.2.0","143560","78409","visual_search_trial","700","","j","","","","","","","","","","null","blue_triangle","1","[""images/Blue_Triangle.png"",""images/Blue_Triangle.png"",""images/Blue_Triangle.png"",""images/Blue_Triangle.png"",""images/Blue_Triangle.png"",""images/Blue_Triangle.png"",""images/Blue_Triangle.png"",""images/Blue_Triangle.png"",""images/Blue_Triangle.png""]","true","[[241,80],[185,15],[101,2],[27,46],[0,127],[30,207],[105,248],[189,232],[243,165]]","false",""
"visual-search-circle","50","2.2.0","145781","78409","visual_search_trial","718","","f","","","","","","","","","","null","red_circle","1","[""images/Red_Triangle.png"",""images/Red_Circle.png"",""images/Red_Circle.png""]","true","[[217,41],[6,86],[150,247]]","true",""
"html-keyboard-response","51","2.1.0","149230","78409","break","3448","<p>Great job so far! Please rest for a few seconds before continuing.</p>
                 <p>Press the <strong>P</strong> key on your keyboard to continue.</p>","p","","","","","","","","","","","","","","","","","P"
"visual-search-circle","52","2.2.0","152138","78409","visual_search_trial","1405","","f","","","","","","","","","","null","blue_triangle","2","[""images/Red_Triangle.png"",""images/Blue_Triangle.png"",""images/Blue_Triangle.png"",""images/Blue_Triangle.png"",""images/Blue_Triangle.png"",""images/Blue_Triangle.png""]","true","[[249,109],[173,9],[49,25],[0,140],[76,240],[200,224]]","true",""
"visual-search-circle","53","2.2.0","154312","78409","visual_search_trial","670","","j","","","","","","","","","","null","red_circle","2","[""images/Red_Circle.png"",""images/Red_Circle.png"",""images/Red_Circle.png"",""images/Red_Circle.png"",""images/Red_Circle.png"",""images/Red_Circle.png""]","true","[[220,205],[242,82],[146,1],[29,44],[7,167],[103,248]]","false",""
"visual-search-circle","54","2.2.0","156396","78409","visual_search_trial","581","","j","","","","","","","","","","null","blue_triangle","2","[""images/Blue_Triangle.png"",""images/Blue_Triangle.png"",""images/Blue_Triangle.png""]","true","[[122,0],[17,189],[234,185]]","false",""
"visual-search-circle","55","2.2.0","158971","78409","visual_search_trial","1071","","j","","","","","","","","","","null","red_blue_mix","2","[""images/Blue_Triangle.png"",""images/Blue_Triangle.png"",""images/Red_Circle.png""]","true","[[232,60],[15,64],[127,249]]","false",""
"visual-search-circle","56","2.2.0","161059","78409","visual_search_trial","585","","j","","","","","","","","","","null","red_circle","2","[""images/Red_Circle.png"",""images/Red_Circle.png"",""images/Red_Circle.png""]","true","[[185,15],[0,127],[189,232]]","false",""
"visual-search-circle","57","2.2.0","163000","78409","visual_search_trial","436","","j","","","","","","","","","","null","blue_triangle","2","[""images/Blue_Triangle.png"",""images/Blue_Triangle.png"",""images/Blue_Triangle.png"",""images/Blue_Triangle.png"",""images/Blue_Triangle.png"",""images/Blue_Triangle.png"",""images/Blue_Triangle.png"",""images/Blue_Triangle.png"",""images/Blue_Triangle.png""]","true","[[1,107],[18,191],[86,243],[171,240],[235,183],[247,99],[201,26],[120,0],[41,32]]","false",""
"visual-search-circle","58","2.2.0","165088","78409","visual_search_trial","584","","f","","","","","","","","","","null","red_circle","2","[""images/Red_Triangle.png"",""images/Red_Circle.png"",""images/Red_Circle.png"",""images/Red_Circle.png"",""images/Red_Circle.png"",""images/Red_Circle.png""]","true","[[90,245],[211,214],[246,94],[159,4],[38,35],[3,155]]","true",""
"visual-search-circle","59","2.2.0","167602","78409","visual_search_trial","1010","","f","","","","","","","","","","null","red_blue_mix","2","[""images/Red_Triangle.png"",""images/Red_Circle.png"",""images/Red_Circle.png"",""images/Red_Circle.png"",""images/Blue_Triangle.png"",""images/Blue_Circle.png""]","true","[[193,229],[249,118],[181,13],[56,20],[0,131],[68,236]]","true",""
"visual-search-circle","60","2.2.0","169929","78409","visual_search_trial","822","","j","","","","","","","","","","null","red_circle","2","[""images/Red_Circle.png"",""images/Red_Circle.png"",""images/Red_Circle.png"",""images/Red_Circle.png"",""images/Red_Circle.png"",""images/Red_Circle.png"",""images/Red_Circle.png"",""images/Red_Circle.png"",""images/Red_Circle.png""]","true","[[62,16],[7,82],[7,167],[62,233],[146,248],[220,205],[250,125],[220,44],[146,1]]","false",""
"visual-search-circle","61","2.2.0","172224","78409","visual_search_trial","790","","f","","","","","","","","","","null","red_blue_mix","2","[""images/Red_Triangle.png"",""images/Blue_Circle.png"",""images/Blue_Circle.png"",""images/Red_Circle.png"",""images/Blue_Triangle.png"",""images/Red_Circle.png"",""images/Blue_Triangle.png"",""images/Blue_Triangle.png"",""images/Red_Circle.png""]","true","[[247,150],[235,66],[171,9],[86,6],[18,58],[1,142],[41,217],[120,249],[201,223]]","true",""
"visual-search-circle","62","2.2.0","174240","78409","visual_search_trial","513","","f","","","","","","","","","","null","red_circle","2","[""images/Red_Triangle.png"",""images/Red_Circle.png"",""images/Red_Circle.png""]","true","[[88,244],[246,96],[39,33]]","true",""
"visual-search-circle","63","2.2.0","176327","78409","visual_search_trial","584","","f","","","","","","","","","","null","red_blue_mix","2","[""images/Red_Triangle.png"",""images/Blue_Circle.png"",""images/Blue_Circle.png""]","true","[[42,219],[247,148],[84,6]]","true",""
"visual-search-circle","64","2.2.0","178379","78409","visual_search_trial","548","","f","","","","","","","","","","null","red_circle","2","[""images/Red_Triangle.png"",""images/Red_Circle.png"",""images/Red_Circle.png"",""images/Red_Circle.png"",""images/Red_Circle.png"",""images/Red_Circle.png"",""images/Red_Circle.png"",""images/Red_Circle.png"",""images/Red_Circle.png""]","true","[[177,238],[238,177],[245,92],[196,22],[114,0],[36,36],[0,114],[22,196],[92,245]]","true",""
"visual-search-circle","65","2.2.0","180427","78409","visual_search_trial","543","","f","","","","","","","","","","null","blue_triangle","2","[""images/Red_Triangle.png"",""images/Blue_Triangle.png"",""images/Blue_Triangle.png"",""images/Blue_Triangle.png"",""images/Blue_Triangle.png"",""images/Blue_Triangle.png"",""images/Blue_Triangle.png"",""images/Blue_Triangle.png"",""images/Blue_Triangle.png""]","true","[[203,27],[122,0],[42,30],[1,105],[17,189],[84,243],[169,241],[234,185],[247,101]]","true",""
"visual-search-circle","66","2.2.0","182707","78409","visual_search_trial","776","","j","","","","","","","","","","null","red_blue_mix","2","[""images/Red_Circle.png"",""images/Blue_Triangle.png"",""images/Red_Circle.png"",""images/Blue_Circle.png"",""images/Blue_Triangle.png"",""images/Blue_Triangle.png""]","true","[[239,175],[226,51],[111,0],[10,74],[23,198],[138,249]]","false",""
"visual-search-circle","67","2.2.0","184746","78409","visual_search_trial","534","","j","","","","","","","","","","null","blue_triangle","2","[""images/Blue_Triangle.png"",""images/Blue_Triangle.png"",""images/Blue_Triangle.png"",""images/Blue_Triangle.png"",""images/Blue_Triangle.png"",""images/Blue_Triangle.png""]","true","[[249,114],[177,11],[53,22],[0,135],[72,238],[196,227]]","false",""
"visual-search-circle","68","2.2.0","187099","78409","visual_search_trial","849","","j","","","","","","","","","","null","red_blue_mix","2","[""images/Blue_Triangle.png"",""images/Blue_Circle.png"",""images/Blue_Triangle.png"",""images/Blue_Circle.png"",""images/Red_Circle.png"",""images/Blue_Triangle.png"",""images/Red_Circle.png"",""images/Blue_Circle.png"",""images/Red_Circle.png""]","true","[[0,109],[20,193],[88,244],[173,240],[236,181],[246,96],[200,25],[118,0],[39,33]]","false",""
"visual-search-circle","69","2.2.0","189353","78409","visual_search_trial","751","","f","","","","","","","","","","null","blue_triangle","2","[""images/Red_Triangle.png"",""images/Blue_Triangle.png"",""images/Blue_Triangle.png""]","true","[[135,249],[227,53],[11,72]]","true",""
"visual-search-circle","70","2.2.0","191409","78409","visual_search_trial","552","","f","","","","","","","","","","null","red_circle","3","[""images/Red_Triangle.png"",""images/Red_Circle.png"",""images/Red_Circle.png""]","true","[[211,35],[3,94],[159,245]]","true",""
"visual-search-circle","71","2.2.0","193624","78409","visual_search_trial","711","","j","","","","","","","","","","null","red_blue_mix","3","[""images/Blue_Circle.png"",""images/Blue_Circle.png"",""images/Red_Circle.png"",""images/Blue_Triangle.png"",""images/Blue_Triangle.png"",""images/Red_Circle.png""]","true","[[6,84],[30,207],[148,247],[243,165],[219,42],[101,2]]","false",""
"visual-search-circle","72","2.2.0","195797","78409","visual_search_trial","668","","f","","","","","","","","","","null","red_circle","3","[""images/Red_Triangle.png"",""images/Red_Circle.png"",""images/Red_Circle.png"",""images/Red_Circle.png"",""images/Red_Circle.png"",""images/Red_Circle.png""]","true","[[249,111],[175,10],[51,23],[0,138],[74,239],[198,226]]","true",""
"visual-search-circle","73","2.2.0","198060","78409","visual_search_trial","759","","f","","","","","","","","","","null","blue_triangle","3","[""images/Red_Triangle.png"",""images/Blue_Triangle.png"",""images/Blue_Triangle.png"",""images/Blue_Triangle.png"",""images/Blue_Triangle.png"",""images/Blue_Triangle.png""]","true","[[0,120],[58,231],[183,235],[249,129],[191,18],[66,14]]","true",""
"visual-search-circle","74","2.2.0","200222","78409","visual_search_trial","658","","j","","","","","","","","","","null","red_blue_mix","3","[""images/Red_Circle.png"",""images/Red_Circle.png"",""images/Blue_Circle.png"",""images/Red_Circle.png"",""images/Blue_Circle.png"",""images/Blue_Triangle.png"",""images/Blue_Triangle.png"",""images/Blue_Circle.png"",""images/Red_Circle.png""]","true","[[155,3],[70,12],[10,74],[4,159],[55,228],[138,249],[214,211],[249,133],[226,51]]","false",""
"visual-search-circle","75","2.2.0","202189","78409","visual_search_trial","463","","j","","","","","","","","","","null","blue_triangle","3","[""images/Blue_Triangle.png"",""images/Blue_Triangle.png"",""images/Blue_Triangle.png""]","true","[[135,0],[11,177],[227,196]]","false",""
"visual-search-circle","76","2.2.0","204235","78409","visual_search_trial","541","","j","","","","","","","","","","null","red_circle","3","[""images/Red_Circle.png"",""images/Red_Circle.png"",""images/Red_Circle.png"",""images/Red_Circle.png"",""images/Red_Circle.png"",""images/Red_Circle.png"",""images/Red_Circle.png"",""images/Red_Circle.png"",""images/Red_Circle.png""]","true","[[17,189],[84,243],[169,241],[234,185],[247,101],[203,27],[122,0],[42,30],[1,105]]","false",""
"visual-search-circle","77","2.2.0","206294","78409","visual_search_trial","556","","j","","","","","","","","","","null","red_blue_mix","3","[""images/Blue_Circle.png"",""images/Blue_Circle.png"",""images/Red_Circle.png""]","true","[[196,22],[0,114],[177,238]]","false",""
"visual-search-circle","78","2.2.0","208255","78409","visual_search_trial","457","","j","","","","","","","","","","null","red_circle","3","[""images/Red_Circle.png"",""images/Red_Circle.png"",""images/Red_Circle.png"",""images/Red_Circle.png"",""images/Red_Circle.png"",""images/Red_Circle.png""]","true","[[219,42],[101,2],[6,84],[30,207],[148,247],[243,165]]","false",""
"visual-search-circle","79","2.2.0","211028","78409","visual_search_trial","1268","","f","","","","","","","","","","null","red_blue_mix","3","[""images/Red_Triangle.png"",""images/Red_Circle.png"",""images/Blue_Triangle.png"",""images/Blue_Circle.png"",""images/Red_Circle.png"",""images/Blue_Triangle.png"",""images/Blue_Circle.png"",""images/Red_Circle.png"",""images/Red_Circle.png""]","true","[[74,239],[159,245],[228,194],[249,111],[211,35],[133,0],[51,23],[3,94],[12,179]]","true",""
"visual-search-circle","80","2.2.0","213106","78409","visual_search_trial","574","","j","","","","","","","","","","null","blue_triangle","3","[""images/Blue_Triangle.png"",""images/Blue_Triangle.png"",""images/Blue_Triangle.png"",""images/Blue_Triangle.png"",""images/Blue_Triangle.png"",""images/Blue_Triangle.png""]","true","[[189,17],[64,15],[0,122],[60,232],[185,234],[249,127]]","false",""
"visual-search-circle","81","2.2.0","215393","78409","visual_search_trial","783","","f","","","","","","","","","","null","red_blue_mix","3","[""images/Red_Triangle.png"",""images/Red_Circle.png"",""images/Blue_Triangle.png"",""images/Blue_Circle.png"",""images/Red_Circle.png"",""images/Red_Circle.png""]","true","[[236,68],[131,0],[20,56],[13,181],[118,249],[229,193]]","true",""
"visual-search-circle","82","2.2.0","217568","78409","visual_search_trial","670","","j","","","","","","","","","","null","blue_triangle","3","[""images/Blue_Triangle.png"",""images/Blue_Triangle.png"",""images/Blue_Triangle.png"",""images/Blue_Triangle.png"",""images/Blue_Triangle.png"",""images/Blue_Triangle.png"",""images/Blue_Triangle.png"",""images/Blue_Triangle.png"",""images/Blue_Triangle.png""]","true","[[44,220],[125,250],[205,220],[248,146],[233,62],[167,7],[82,7],[16,62],[1,146]]","false",""
"visual-search-circle","83","2.2.0","219729","78409","visual_search_trial","656","","f","","","","","","","","","","null","red_circle","3","[""images/Red_Triangle.png"",""images/Red_Circle.png"",""images/Red_Circle.png"",""images/Red_Circle.png"",""images/Red_Circle.png"",""images/Red_Circle.png"",""images/Red_Circle.png"",""images/Red_Circle.png"",""images/Red_Circle.png""]","true","[[32,41],[0,120],[26,201],[99,247],[183,235],[240,171],[243,86],[191,18],[107,1]]","true",""
"visual-search-circle","84","2.2.0","222058","78409","visual_search_trial","826","","f","","","","","","","","","","null","red_blue_mix","3","[""images/Red_Triangle.png"",""images/Blue_Circle.png"",""images/Blue_Triangle.png""]","true","[[236,181],[118,0],[20,193]]","true",""
"visual-search-circle","85","2.2.0","224850","78409","visual_search_trial","1288","","f","","","","","","","","","","null","blue_triangle","3","[""images/Red_Triangle.png"",""images/Blue_Triangle.png"",""images/Blue_Triangle.png""]","true","[[2,148],[207,219],[165,6]]","true",""
"visual-search-circle","86","2.2.0","227194","78409","visual_search_trial","842","","j","","","","","","","","","","null","red_circle","3","[""images/Red_Circle.png"",""images/Red_Circle.png"",""images/Red_Circle.png""]","true","[[5,88],[153,246],[216,39]]","false",""
"visual-search-circle","87","2.2.0","229449","78409","visual_search_trial","749","","f","","","","","","","","","","null","blue_triangle","3","[""images/Red_Triangle.png"",""images/Blue_Triangle.png"",""images/Blue_Triangle.png"",""images/Blue_Triangle.png"",""images/Blue_Triangle.png"",""images/Blue_Triangle.png"",""images/Blue_Triangle.png"",""images/Blue_Triangle.png"",""images/Blue_Triangle.png""]","true","[[189,17],[105,1],[30,42],[0,122],[27,203],[101,247],[185,234],[241,169],[243,84]]","true",""
"html-keyboard-response","88","2.1.0","231745","78409","break","2295","<p>Great job so far! Please rest for a few seconds before continuing.</p>
                 <p>Press the <strong>L</strong> key on your keyboard to continue.</p>","l","","","","","","","","","","","","","","","","","L"
"visual-search-circle","89","2.2.0","234168","78409","visual_search_trial","919","","j","","","","","","","","","","null","red_circle","4","[""images/Red_Circle.png"",""images/Red_Circle.png"",""images/Red_Circle.png""]","true","[[1,142],[201,223],[171,9]]","false",""
"visual-search-circle","90","2.2.0","236648","78409","visual_search_trial","976","","f","","","","","","","","","","null","red_blue_mix","4","[""images/Red_Triangle.png"",""images/Blue_Triangle.png"",""images/Red_Circle.png"",""images/Blue_Circle.png"",""images/Red_Circle.png"",""images/Blue_Triangle.png""]","true","[[23,198],[138,249],[239,175],[226,51],[111,0],[10,74]]","true",""
"visual-search-circle","91","2.2.0","239184","78409","visual_search_trial","1033","","f","","","","","","","","","","null","blue_triangle","4","[""images/Red_Triangle.png"",""images/Blue_Triangle.png"",""images/Blue_Triangle.png"",""images/Blue_Triangle.png"",""images/Blue_Triangle.png"",""images/Blue_Triangle.png""]","true","[[0,122],[60,232],[185,234],[249,127],[189,17],[64,15]]","true",""
"visual-search-circle","92","2.2.0","241208","78409","visual_search_trial","519","","j","","","","","","","","","","null","red_circle","4","[""images/Red_Circle.png"",""images/Red_Circle.png"",""images/Red_Circle.png"",""images/Red_Circle.png"",""images/Red_Circle.png"",""images/Red_Circle.png"",""images/Red_Circle.png"",""images/Red_Circle.png"",""images/Red_Circle.png""]","true","[[193,229],[244,161],[240,76],[181,13],[96,3],[25,49],[0,131],[33,210],[109,249]]","false",""
"visual-search-circle","93","2.2.0","243263","78409","visual_search_trial","552","","j","","","","","","","","","","null","blue_triangle","4","[""images/Blue_Triangle.png"",""images/Blue_Triangle.png"",""images/Blue_Triangle.png"",""images/Blue_Triangle.png"",""images/Blue_Triangle.png"",""images/Blue_Triangle.png""]","true","[[17,60],[15,185],[122,249],[232,189],[234,64],[127,0]]","false",""
"visual-search-circle","94","2.2.0","245700","78409","visual_search_trial","931","","j","","","","","","","","","","null","red_blue_mix","4","[""images/Red_Circle.png"",""images/Blue_Circle.png"",""images/Blue_Triangle.png"",""images/Red_Circle.png"",""images/Red_Circle.png"",""images/Blue_Circle.png"",""images/Blue_Triangle.png"",""images/Blue_Triangle.png"",""images/Red_Circle.png""]","true","[[173,9],[88,5],[20,56],[0,140],[39,216],[118,249],[200,224],[246,153],[236,68]]","false",""
"visual-search-circle","95","2.2.0","247733","78409","visual_search_trial","530","","j","","","","","","","","","","null","blue_triangle","4","[""images/Blue_Triangle.png"",""images/Blue_Triangle.png"",""images/Blue_Triangle.png""]","true","[[246,153],[88,5],[39,216]]","false",""
"visual-search-circle","96","2.2.0","250009","78409","visual_search_trial","771","","f","","","","","","","","","","null","red_blue_mix","4","[""images/Red_Triangle.png"",""images/Blue_Triangle.png"",""images/Red_Circle.png"",""images/Red_Circle.png"",""images/Blue_Triangle.png"",""images/Blue_Circle.png"",""images/Red_Circle.png"",""images/Blue_Triangle.png"",""images/Blue_Circle.png""]","true","[[120,0],[41,32],[1,107],[18,191],[86,243],[171,240],[235,183],[247,99],[201,26]]","true",""
"visual-search-circle","97","2.2.0","252118","78409","visual_search_trial","605","","f","","","","","","","","","","null","blue_triangle","4","[""images/Red_Triangle.png"",""images/Blue_Triangle.png"",""images/Blue_Triangle.png""]","true","[[103,1],[29,205],[242,167]]","true",""
"visual-search-circle","98","2.2.0","254201","78409","visual_search_trial","579","","f","","","","","","","","","","null","red_circle","4","[""images/Red_Triangle.png"",""images/Red_Circle.png"",""images/Red_Circle.png"",""images/Red_Circle.png"",""images/Red_Circle.png"",""images/Red_Circle.png""]","true","[[191,18],[66,14],[0,120],[58,231],[183,235],[249,129]]","true",""
"visual-search-circle","99","2.2.0","256329","78409","visual_search_trial","622","","j","","","","","","","","","","null","blue_triangle","4","[""images/Blue_Triangle.png"",""images/Blue_Triangle.png"",""images/Blue_Triangle.png"",""images/Blue_Triangle.png"",""images/Blue_Triangle.png"",""images/Blue_Triangle.png"",""images/Blue_Triangle.png"",""images/Blue_Triangle.png"",""images/Blue_Triangle.png""]","true","[[14,183],[78,240],[163,243],[231,191],[248,107],[208,32],[129,0],[48,26],[2,99]]","false",""
"visual-search-circle","100","2.2.0","258495","78409","visual_search_trial","662","","j","","","","","","","","","","null","red_blue_mix","4","[""images/Blue_Circle.png"",""images/Blue_Triangle.png"",""images/Blue_Triangle.png"",""images/Red_Circle.png"",""images/Blue_Triangle.png"",""images/Red_Circle.png""]","true","[[76,9],[0,109],[49,224],[173,240],[249,140],[200,25]]","false",""
"visual-search-circle","101","2.2.0","260648","78409","visual_search_trial","648","","f","","","","","","","","","","null","red_circle","4","[""images/Red_Triangle.png"",""images/Red_Circle.png"",""images/Red_Circle.png"",""images/Red_Circle.png"",""images/Red_Circle.png"",""images/Red_Circle.png"",""images/Red_Circle.png"",""images/Red_Circle.png"",""images/Red_Circle.png""]","true","[[173,240],[236,181],[246,96],[200,25],[118,0],[39,33],[0,109],[20,193],[88,244]]","true",""
"visual-search-circle","102","2.2.0","262727","78409","visual_search_trial","575","","f","","","","","","","","","","null","blue_triangle","4","[""images/Red_Triangle.png"",""images/Blue_Triangle.png"",""images/Blue_Triangle.png"",""images/Blue_Triangle.png"",""images/Blue_Triangle.png"",""images/Blue_Triangle.png"",""images/Blue_Triangle.png"",""images/Blue_Triangle.png"",""images/Blue_Triangle.png""]","true","[[175,239],[237,179],[246,94],[198,23],[116,0],[38,35],[0,111],[21,194],[90,245]]","true",""
"visual-search-circle","103","2.2.0","264764","78409","visual_search_trial","534","","j","","","","","","","","","","null","red_blue_mix","4","[""images/Blue_Triangle.png"",""images/Red_Circle.png"",""images/Blue_Triangle.png""]","true","[[211,35],[3,94],[159,245]]","false",""
"visual-search-circle","104","2.2.0","266796","78409","visual_search_trial","528","","j","","","","","","","","","","null","red_circle","4","[""images/Red_Circle.png"",""images/Red_Circle.png"",""images/Red_Circle.png"",""images/Red_Circle.png"",""images/Red_Circle.png"",""images/Red_Circle.png""]","true","[[249,114],[177,11],[53,22],[0,135],[72,238],[196,227]]","false",""
"visual-search-circle","105","2.2.0","268892","78409","visual_search_trial","592","","f","","","","","","","","","","null","red_blue_mix","4","[""images/Red_Triangle.png"",""images/Red_Circle.png"",""images/Blue_Triangle.png""]","true","[[9,78],[142,248],[223,48]]","true",""
"visual-search-circle","106","2.2.0","271030","78409","visual_search_trial","635","","f","","","","","","","","","","null","red_circle","4","[""images/Red_Triangle.png"",""images/Red_Circle.png"",""images/Red_Circle.png""]","true","[[148,2],[6,165],[219,207]]","true",""
"visual-search-circle","107","2.2.0","273225","78409","visual_search_trial","689","","j","","","","","","","","","","null","red_blue_mix","5","[""images/Red_Circle.png"",""images/Blue_Circle.png"",""images/Blue_Circle.png"",""images/Red_Circle.png"",""images/Blue_Triangle.png"",""images/Red_Circle.png"",""images/Blue_Triangle.png"",""images/Blue_Triangle.png"",""images/Red_Circle.png""]","true","[[88,244],[173,240],[236,181],[246,96],[200,25],[118,0],[39,33],[0,109],[20,193]]","false",""
"visual-search-circle","108","2.2.0","275317","78409","visual_search_trial","588","","f","","","","","","","","","","null","blue_triangle","5","[""images/Red_Triangle.png"",""images/Blue_Triangle.png"",""images/Blue_Triangle.png"",""images/Blue_Triangle.png"",""images/Blue_Triangle.png"",""images/Blue_Triangle.png"",""images/Blue_Triangle.png"",""images/Blue_Triangle.png"",""images/Blue_Triangle.png""]","true","[[194,21],[111,0],[35,38],[0,116],[23,198],[94,246],[179,237],[239,175],[245,90]]","true",""
"visual-search-circle","109","2.2.0","277570","78409","visual_search_trial","748","","f","","","","","","","","","","null","red_blue_mix","5","[""images/Red_Triangle.png"",""images/Blue_Triangle.png"",""images/Blue_Triangle.png"",""images/Blue_Triangle.png"",""images/Red_Circle.png"",""images/Red_Circle.png"",""images/Blue_Circle.png"",""images/Blue_Triangle.png"",""images/Blue_Triangle.png""]","true","[[107,1],[32,41],[0,120],[26,201],[99,247],[183,235],[240,171],[243,86],[191,18]]","true",""
"visual-search-circle","110","2.2.0","279738","78409","visual_search_trial","664","","f","","","","","","","","","","null","red_circle","5","[""images/Red_Triangle.png"",""images/Red_Circle.png"",""images/Red_Circle.png"",""images/Red_Circle.png"",""images/Red_Circle.png"",""images/Red_Circle.png""]","true","[[0,140],[76,240],[200,224],[249,109],[173,9],[49,25]]","true",""
"visual-search-circle","111","2.2.0","281972","78409","visual_search_trial","731","","f","","","","","","","","","","null","blue_triangle","5","[""images/Red_Triangle.png"",""images/Blue_Triangle.png"",""images/Blue_Triangle.png""]","true","[[236,68],[20,56],[118,249]]","true",""
"visual-search-circle","112","2.2.0","284164","78409","visual_search_trial","689","","f","","","","","","","","","","null","red_blue_mix","5","[""images/Red_Triangle.png"",""images/Blue_Triangle.png"",""images/Red_Circle.png""]","true","[[187,16],[0,125],[187,233]]","true",""
"visual-search-circle","113","2.2.0","286293","78409","visual_search_trial","623","","j","","","","","","","","","","null","red_circle","5","[""images/Red_Circle.png"",""images/Red_Circle.png"",""images/Red_Circle.png"",""images/Red_Circle.png"",""images/Red_Circle.png"",""images/Red_Circle.png"",""images/Red_Circle.png"",""images/Red_Circle.png"",""images/Red_Circle.png""]","true","[[226,51],[155,3],[70,12],[10,74],[4,159],[55,228],[138,249],[214,211],[249,133]]","false",""
"visual-search-circle","114","2.2.0","288665","78409","visual_search_trial","869","","j","","","","","","","","","","null","red_blue_mix","5","[""images/Red_Circle.png"",""images/Blue_Triangle.png"",""images/Blue_Circle.png""]","true","[[66,14],[58,231],[249,129]]","false",""
"visual-search-circle","115","2.2.0","290693","78409","visual_search_trial","524","","j","","","","","","","","","","null","red_circle","5","[""images/Red_Circle.png"",""images/Red_Circle.png"",""images/Red_Circle.png"",""images/Red_Circle.png"",""images/Red_Circle.png"",""images/Red_Circle.png""]","true","[[46,222],[169,241],[248,144],[203,27],[80,8],[1,105]]","false",""
"visual-search-circle","116","2.2.0","292886","78409","visual_search_trial","689","","f","","","","","","","","","","null","blue_triangle","5","[""images/Red_Triangle.png"",""images/Blue_Triangle.png"",""images/Blue_Triangle.png"",""images/Blue_Triangle.png"",""images/Blue_Triangle.png"",""images/Blue_Triangle.png""]","true","[[135,249],[238,177],[227,53],[114,0],[11,72],[22,196]]","true",""
"visual-search-circle","117","2.2.0","294928","78409","visual_search_trial","537","","j","","","","","","","","","","null","red_circle","5","[""images/Red_Circle.png"",""images/Red_Circle.png"",""images/Red_Circle.png""]","true","[[11,177],[227,196],[135,0]]","false",""
"visual-search-circle","118","2.2.0","296960","78409","visual_search_trial","527","","j","","","","","","","","","","null","blue_triangle","5","[""images/Blue_Triangle.png"",""images/Blue_Triangle.png"",""images/Blue_Triangle.png"",""images/Blue_Triangle.png"",""images/Blue_Triangle.png"",""images/Blue_Triangle.png"",""images/Blue_Triangle.png"",""images/Blue_Triangle.png"",""images/Blue_Triangle.png""]","true","[[26,48],[0,129],[32,208],[107,248],[191,231],[243,163],[240,78],[183,14],[99,2]]","false",""
"visual-search-circle","119","2.2.0","299474","78409","visual_search_trial","1010","","f","","","","","","","","","","null","red_blue_mix","5","[""images/Red_Triangle.png"",""images/Red_Circle.png"",""images/Blue_Triangle.png"",""images/Blue_Triangle.png"",""images/Blue_Triangle.png"",""images/Red_Circle.png""]","true","[[249,131],[193,20],[68,13],[0,118],[56,229],[181,236]]","true",""
"visual-search-circle","120","2.2.0","301464","78409","visual_search_trial","486","","j","","","","","","","","","","null","blue_triangle","5","[""images/Blue_Triangle.png"",""images/Blue_Triangle.png"",""images/Blue_Triangle.png""]","true","[[173,9],[0,140],[200,224]]","false",""
"visual-search-circle","121","2.2.0","303680","78409","visual_search_trial","712","","j","","","","","","","","","","null","red_blue_mix","5","[""images/Red_Circle.png"",""images/Red_Circle.png"",""images/Red_Circle.png"",""images/Blue_Triangle.png"",""images/Red_Circle.png"",""images/Red_Circle.png""]","true","[[245,157],[213,36],[92,4],[4,92],[36,213],[157,245]]","false",""
"visual-search-circle","122","2.2.0","305751","78409","visual_search_trial","567","","f","","","","","","","","","","null","red_circle","5","[""images/Red_Triangle.png"",""images/Red_Circle.png"",""images/Red_Circle.png""]","true","[[5,88],[153,246],[216,39]]","true",""
"visual-search-circle","123","2.2.0","307763","78409","visual_search_trial","507","","j","","","","","","","","","","null","blue_triangle","5","[""images/Blue_Triangle.png"",""images/Blue_Triangle.png"",""images/Blue_Triangle.png"",""images/Blue_Triangle.png"",""images/Blue_Triangle.png"",""images/Blue_Triangle.png""]","true","[[48,26],[1,142],[78,240],[201,223],[248,107],[171,9]]","false",""
"visual-search-circle","124","2.2.0","310020","78409","visual_search_trial","753","","f","","","","","","","","","","null","red_circle","5","[""images/Red_Triangle.png"",""images/Red_Circle.png"",""images/Red_Circle.png"",""images/Red_Circle.png"",""images/Red_Circle.png"",""images/Red_Circle.png"",""images/Red_Circle.png"",""images/Red_Circle.png"",""images/Red_Circle.png""]","true","[[146,1],[62,16],[7,82],[7,167],[62,233],[146,248],[220,205],[250,125],[220,44]]","true",""
"html-keyboard-response","125","2.1.0","313398","78409","break","3377","<p>Great job so far! Please rest for a few seconds before continuing.</p>
                 <p>Press the <strong>Q</strong> key on your keyboard to continue.</p>","q","","","","","","","","","","","","","","","","","Q"
"visual-search-circle","126","2.2.0","316107","78409","visual_search_trial","1204","","f","","","","","","","","","","null","blue_triangle","6","[""images/Red_Triangle.png"",""images/Blue_Triangle.png"",""images/Blue_Triangle.png"",""images/Blue_Triangle.png"",""images/Blue_Triangle.png"",""images/Blue_Triangle.png"",""images/Blue_Triangle.png"",""images/Blue_Triangle.png"",""images/Blue_Triangle.png""]","true","[[236,68],[173,9],[88,5],[20,56],[0,140],[39,216],[118,249],[200,224],[246,153]]","true",""
"visual-search-circle","127","2.2.0","318258","78409","visual_search_trial","647","","j","","","","","","","","","","null","red_blue_mix","6","[""images/Blue_Triangle.png"",""images/Blue_Triangle.png"",""images/Red_Circle.png""]","true","[[35,211],[245,159],[94,3]]","false",""
"visual-search-circle","128","2.2.0","320266","78409","visual_search_trial","503","","j","","","","","","","","","","null","red_circle","6","[""images/Red_Circle.png"",""images/Red_Circle.png"",""images/Red_Circle.png"",""images/Red_Circle.png"",""images/Red_Circle.png"",""images/Red_Circle.png"",""images/Red_Circle.png"",""images/Red_Circle.png"",""images/Red_Circle.png""]","true","[[167,7],[82,7],[16,62],[1,146],[44,220],[125,250],[205,220],[248,146],[233,62]]","false",""
"visual-search-circle","129","2.2.0","322869","78409","visual_search_trial","1098","","f","","","","","","","","","","null","red_blue_mix","6","[""images/Red_Triangle.png"",""images/Blue_Triangle.png"",""images/Blue_Circle.png"",""images/Blue_Triangle.png"",""images/Blue_Triangle.png"",""images/Red_Circle.png"",""images/Blue_Triangle.png"",""images/Blue_Circle.png"",""images/Red_Circle.png""]","true","[[4,159],[55,228],[138,249],[214,211],[249,133],[226,51],[155,3],[70,12],[10,74]]","true",""
"visual-search-circle","130","2.2.0","324840","78409","visual_search_trial","468","","j","","","","","","","","","","null","blue_triangle","6","[""images/Blue_Triangle.png"",""images/Blue_Triangle.png"",""images/Blue_Triangle.png""]","true","[[12,70],[133,249],[228,55]]","false",""
"visual-search-circle","131","2.2.0","326839","78409","visual_search_trial","495","","f","","","","","","","","","","null","red_blue_mix","6","[""images/Red_Triangle.png"",""images/Blue_Circle.png"",""images/Red_Circle.png"",""images/Red_Circle.png"",""images/Red_Circle.png"",""images/Red_Circle.png""]","true","[[9,78],[26,201],[142,248],[240,171],[223,48],[107,1]]","true",""
"visual-search-circle","132","2.2.0","328927","78409","visual_search_trial","584","","f","","","","","","","","","","null","red_circle","6","[""images/Red_Triangle.png"",""images/Red_Circle.png"",""images/Red_Circle.png"",""images/Red_Circle.png"",""images/Red_Circle.png"",""images/Red_Circle.png""]","true","[[228,55],[116,0],[12,70],[21,194],[133,249],[237,179]]","true",""
"visual-search-circle","133","2.2.0","330905","78409","visual_search_trial","473","","j","","","","","","","","","","null","blue_triangle","6","[""images/Blue_Triangle.png"",""images/Blue_Triangle.png"",""images/Blue_Triangle.png"",""images/Blue_Triangle.png"",""images/Blue_Triangle.png"",""images/Blue_Triangle.png"",""images/Blue_Triangle.png"",""images/Blue_Triangle.png"",""images/Blue_Triangle.png""]","true","[[249,116],[214,38],[138,0],[55,21],[4,90],[10,175],[70,237],[155,246],[226,198]]","false",""
"visual-search-circle","134","2.2.0","333074","78409","visual_search_trial","664","","f","","","","","","","","","","null","red_circle","6","[""images/Red_Triangle.png"",""images/Red_Circle.png"",""images/Red_Circle.png"",""images/Red_Circle.png"",""images/Red_Circle.png"",""images/Red_Circle.png"",""images/Red_Circle.png"",""images/Red_Circle.png"",""images/Red_Circle.png""]","true","[[99,247],[183,235],[240,171],[243,86],[191,18],[107,1],[32,41],[0,120],[26,201]]","true",""
"visual-search-circle","135","2.2.0","335608","78409","visual_search_trial","1029","","j","","","","","","","","","","null","red_blue_mix","6","[""images/Blue_Circle.png"",""images/Red_Circle.png"",""images/Blue_Triangle.png"",""images/Blue_Circle.png"",""images/Blue_Circle.png"",""images/Blue_Triangle.png"",""images/Blue_Circle.png"",""images/Blue_Circle.png"",""images/Red_Circle.png""]","true","[[38,35],[0,111],[21,194],[90,245],[175,239],[237,179],[246,94],[198,23],[116,0]]","false",""
"visual-search-circle","136","2.2.0","338805","78409","visual_search_trial","1693","","f","","","","","","","","","","null","blue_triangle","6","[""images/Red_Triangle.png"",""images/Blue_Triangle.png"",""images/Blue_Triangle.png"",""images/Blue_Triangle.png"",""images/Blue_Triangle.png"",""images/Blue_Triangle.png""]","true","[[96,3],[5,88],[33,210],[153,246],[244,161],[216,39]]","true",""
"visual-search-circle","137","2.2.0","341381","78409","visual_search_trial","1073","","f","","","","","","","","","","null","red_circle","6","[""images/Red_Triangle.png"",""images/Red_Circle.png"",""images/Red_Circle.png""]","true","[[157,245],[213,36],[4,92]]","true",""
"visual-search-circle","138","2.2.0","344064","78409","visual_search_trial","1179","","j","","","","","","","","","","null","red_blue_mix","6","[""images/Blue_Triangle.png"",""images/Blue_Triangle.png"",""images/Red_Circle.png"",""images/Blue_Triangle.png"",""images/Red_Circle.png"",""images/Blue_Circle.png""]","true","[[157,245],[245,157],[213,36],[92,4],[4,92],[36,213]]","false",""
"visual-search-circle","139","2.2.0","346131","78409","visual_search_trial","563","","j","","","","","","","","","","null","blue_triangle","6","[""images/Blue_Triangle.png"",""images/Blue_Triangle.png"",""images/Blue_Triangle.png"",""images/Blue_Triangle.png"",""images/Blue_Triangle.png"",""images/Blue_Triangle.png""]","true","[[90,4],[3,94],[38,214],[159,245],[246,155],[211,35]]","false",""
"visual-search-circle","140","2.2.0","348113","78409","visual_search_trial","478","","j","","","","","","","","","","null","red_circle","6","[""images/Red_Circle.png"",""images/Red_Circle.png"",""images/Red_Circle.png"",""images/Red_Circle.png"",""images/Red_Circle.png"",""images/Red_Circle.png""]","true","[[228,194],[237,70],[133,0],[21,55],[12,179],[116,249]]","false",""
"visual-search-circle","141","2.2.0","350157","78409","visual_search_trial","541","","f","","","","","","","","","","null","red_blue_mix","6","[""images/Red_Triangle.png"",""images/Red_Circle.png"",""images/Blue_Circle.png""]","true","[[51,23],[74,239],[249,111]]","true",""
"visual-search-circle","142","2.2.0","352092","78409","visual_search_trial","432","","j","","","","","","","","","","null","blue_triangle","6","[""images/Red_Triangle.png"",""images/Blue_Triangle.png"",""images/Blue_Triangle.png""]","false","[[161,244],[210,33],[3,96]]","true",""
"visual-search-circle","143","2.2.0","354252","78409","visual_search_trial","657","","j","","","","","","","","","","null","red_circle","6","[""images/Red_Circle.png"",""images/Red_Circle.png"",""images/Red_Circle.png""]","true","[[16,187],[233,187],[125,0]]","false",""
"visual-search-circle","144","2.2.0","356310","78409","visual_search_trial","553","","j","","","","","","","","","","null","red_circle","7","[""images/Red_Circle.png"",""images/Red_Circle.png"",""images/Red_Circle.png"",""images/Red_Circle.png"",""images/Red_Circle.png"",""images/Red_Circle.png"",""images/Red_Circle.png"",""images/Red_Circle.png"",""images/Red_Circle.png""]","true","[[94,246],[179,237],[239,175],[245,90],[194,21],[111,0],[35,38],[0,116],[23,198]]","false",""
"visual-search-circle","145","2.2.0","358797","78409","visual_search_trial","984","","j","","","","","","","","","","null","red_blue_mix","7","[""images/Blue_Circle.png"",""images/Red_Circle.png"",""images/Blue_Triangle.png""]","true","[[133,0],[12,179],[228,194]]","false",""
"visual-search-circle","146","2.2.0","360817","78409","visual_search_trial","516","","j","","","","","","","","","","null","red_circle","7","[""images/Red_Circle.png"",""images/Red_Circle.png"",""images/Red_Circle.png"",""images/Red_Circle.png"",""images/Red_Circle.png"",""images/Red_Circle.png""]","true","[[21,194],[133,249],[237,179],[228,55],[116,0],[12,70]]","false",""
"visual-search-circle","147","2.2.0","362879","78409","visual_search_trial","558","","f","","","","","","","","","","null","red_blue_mix","7","[""images/Red_Triangle.png"",""images/Blue_Triangle.png"",""images/Blue_Circle.png""]","true","[[99,247],[243,86],[32,41]]","true",""
"visual-search-circle","148","2.2.0","365035","78409","visual_search_trial","652","","f","","","","","","","","","","null","red_circle","7","[""images/Red_Triangle.png"",""images/Red_Circle.png"",""images/Red_Circle.png"",""images/Red_Circle.png"",""images/Red_Circle.png"",""images/Red_Circle.png"",""images/Red_Circle.png"",""images/Red_Circle.png"",""images/Red_Circle.png""]","true","[[3,153],[49,224],[131,249],[210,216],[249,140],[229,56],[161,5],[76,9],[13,68]]","true",""
"visual-search-circle","149","2.2.0","367124","78409","visual_search_trial","586","","f","","","","","","","","","","null","blue_triangle","7","[""images/Red_Triangle.png"",""images/Blue_Triangle.png"",""images/Blue_Triangle.png""]","true","[[249,111],[51,23],[74,239]]","true",""
"visual-search-circle","150","2.2.0","369260","78409","visual_search_trial","634","","f","","","","","","","","","","null","red_circle","7","[""images/Red_Triangle.png"",""images/Red_Circle.png"",""images/Red_Circle.png""]","true","[[238,177],[114,0],[22,196]]","true",""
"visual-search-circle","151","2.2.0","371249","78409","visual_search_trial","483","","j","","","","","","","","","","null","blue_triangle","7","[""images/Blue_Triangle.png"",""images/Blue_Triangle.png"",""images/Blue_Triangle.png"",""images/Blue_Triangle.png"",""images/Blue_Triangle.png"",""images/Blue_Triangle.png"",""images/Blue_Triangle.png"",""images/Blue_Triangle.png"",""images/Blue_Triangle.png""]","true","[[39,33],[0,109],[20,193],[88,244],[173,240],[236,181],[246,96],[200,25],[118,0]]","false",""
"visual-search-circle","152","2.2.0","373357","78409","visual_search_trial","604","","f","","","","","","","","","","null","red_blue_mix","7","[""images/Red_Triangle.png"",""images/Red_Circle.png"",""images/Red_Circle.png"",""images/Blue_Triangle.png"",""images/Red_Circle.png"",""images/Red_Circle.png""]","true","[[17,60],[15,185],[122,249],[232,189],[234,64],[127,0]]","true",""
"visual-search-circle","153","2.2.0","375388","78409","visual_search_trial","527","","f","","","","","","","","","","null","blue_triangle","7","[""images/Red_Triangle.png"",""images/Blue_Triangle.png"",""images/Blue_Triangle.png"",""images/Blue_Triangle.png"",""images/Blue_Triangle.png"",""images/Blue_Triangle.png""]","true","[[5,88],[33,210],[153,246],[244,161],[216,39],[96,3]]","true",""
"visual-search-circle","154","2.2.0","377896","78409","visual_search_trial","1004","","j","","","","","","","","","","null","red_blue_mix","7","[""images/Blue_Triangle.png"",""images/Red_Circle.png"",""images/Blue_Triangle.png"",""images/Blue_Triangle.png"",""images/Blue_Circle.png"",""images/Red_Circle.png""]","true","[[16,62],[16,187],[125,250],[233,187],[233,62],[125,0]]","false",""
"visual-search-circle","155","2.2.0","379825","78409","visual_search_trial","427","","j","","","","","","","","","","null","blue_triangle","7","[""images/Blue_Triangle.png"",""images/Blue_Triangle.png"",""images/Blue_Triangle.png""]","true","[[111,249],[239,74],[23,51]]","false",""
"visual-search-circle","156","2.2.0","382103","78409","visual_search_trial","775","","f","","","","","","","","","","null","red_circle","7","[""images/Red_Triangle.png"",""images/Red_Circle.png"",""images/Red_Circle.png"",""images/Red_Circle.png"",""images/Red_Circle.png"",""images/Red_Circle.png""]","true","[[185,234],[249,127],[189,17],[64,15],[0,122],[60,232]]","true",""
"visual-search-circle","157","2.2.0","385028","78409","visual_search_trial","1419","","j","","","","","","","","","","null","red_blue_mix","7","[""images/Blue_Triangle.png"",""images/Blue_Triangle.png"",""images/Blue_Triangle.png"",""images/Blue_Triangle.png"",""images/Blue_Circle.png"",""images/Blue_Triangle.png"",""images/Blue_Circle.png"",""images/Blue_Triangle.png"",""images/Red_Circle.png""]","true","[[244,88],[193,20],[109,0],[33,39],[0,118],[25,200],[96,246],[181,236],[240,173]]","false",""
"visual-search-circle","158","2.2.0","387072","78409","visual_search_trial","542","","j","","","","","","","","","","null","red_circle","7","[""images/Red_Circle.png"",""images/Red_Circle.png"",""images/Red_Circle.png""]","true","[[239,74],[23,51],[111,249]]","false",""
"visual-search-circle","159","2.2.0","389368","78409","visual_search_trial","791","","f","","","","","","","","","","null","blue_triangle","7","[""images/Red_Triangle.png"",""images/Blue_Triangle.png"",""images/Blue_Triangle.png"",""images/Blue_Triangle.png"",""images/Blue_Triangle.png"",""images/Blue_Triangle.png"",""images/Blue_Triangle.png"",""images/Blue_Triangle.png"",""images/Blue_Triangle.png""]","true","[[118,0],[39,33],[0,109],[20,193],[88,244],[173,240],[236,181],[246,96],[200,25]]","true",""
"visual-search-circle","160","2.2.0","391705","78409","visual_search_trial","833","","f","","","","","","","","","","null","red_blue_mix","7","[""images/Red_Triangle.png"",""images/Blue_Triangle.png"",""images/Blue_Triangle.png"",""images/Red_Circle.png"",""images/Blue_Circle.png"",""images/Blue_Triangle.png"",""images/Red_Circle.png"",""images/Red_Circle.png"",""images/Blue_Circle.png""]","true","[[29,44],[0,125],[29,205],[103,248],[187,233],[242,167],[242,82],[187,16],[103,1]]","true",""
"visual-search-circle","161","2.2.0","393653","78409","visual_search_trial","443","","j","","","","","","","","","","null","blue_triangle","7","[""images/Blue_Triangle.png"",""images/Blue_Triangle.png"",""images/Blue_Triangle.png"",""images/Blue_Triangle.png"",""images/Blue_Triangle.png"",""images/Blue_Triangle.png""]","true","[[163,243],[247,150],[208,32],[86,6],[2,99],[41,217]]","false",""
"html-keyboard-response","162","2.1.0","395711","78409","break","2058","<p>Great job so far! Please rest for a few seconds before continuing.</p>
                 <p>Press the <strong>X</strong> key on your keyboard to continue.</p>","x","","","","","","","","","","","","","","","","","X"
"visual-search-circle","163","2.2.0","398291","78409","visual_search_trial","1075","","f","","","","","","","","","","null","blue_triangle","8","[""images/Red_Triangle.png"",""images/Blue_Triangle.png"",""images/Blue_Triangle.png"",""images/Blue_Triangle.png"",""images/Blue_Triangle.png"",""images/Blue_Triangle.png"",""images/Blue_Triangle.png"",""images/Blue_Triangle.png"",""images/Blue_Triangle.png""]","true","[[27,46],[0,127],[30,207],[105,248],[189,232],[243,165],[241,80],[185,15],[101,2]]","true",""
"visual-search-circle","164","2.2.0","400286","78409","visual_search_trial","490","","f","","","","","","","","","","null","red_circle","8","[""images/Red_Triangle.png"",""images/Red_Circle.png"",""images/Red_Circle.png"",""images/Red_Circle.png"",""images/Red_Circle.png"",""images/Red_Circle.png"",""images/Red_Circle.png"",""images/Red_Circle.png"",""images/Red_Circle.png""]","true","[[18,58],[1,142],[41,217],[120,249],[201,223],[247,150],[235,66],[171,9],[86,6]]","true",""
"visual-search-circle","165","2.2.0","402215","78409","visual_search_trial","425","","f","","","","","","","","","","null","red_blue_mix","8","[""images/Red_Triangle.png"",""images/Blue_Triangle.png"",""images/Blue_Circle.png""]","true","[[0,135],[196,227],[177,11]]","true",""
"visual-search-circle","166","2.2.0","404100","78409","visual_search_trial","382","","j","","","","","","","","","","null","blue_triangle","8","[""images/Blue_Triangle.png"",""images/Blue_Triangle.png"",""images/Blue_Triangle.png""]","true","[[13,68],[131,249],[229,56]]","false",""
"visual-search-circle","167","2.2.0","406095","78409","visual_search_trial","491","","j","","","","","","","","","","null","red_circle","8","[""images/Red_Circle.png"",""images/Red_Circle.png"",""images/Red_Circle.png"",""images/Red_Circle.png"",""images/Red_Circle.png"",""images/Red_Circle.png""]","true","[[122,249],[232,189],[234,64],[127,0],[17,60],[15,185]]","false",""
"visual-search-circle","168","2.2.0","408221","78409","visual_search_trial","623","","j","","","","","","","","","","null","red_blue_mix","8","[""images/Blue_Circle.png"",""images/Blue_Circle.png"",""images/Blue_Triangle.png""]","true","[[207,30],[2,101],[165,243]]","false",""
"visual-search-circle","169","2.2.0","410139","78409","visual_search_trial","414","","j","","","","","","","","","","null","blue_triangle","8","[""images/Blue_Triangle.png"",""images/Blue_Triangle.png"",""images/Blue_Triangle.png"",""images/Blue_Triangle.png"",""images/Blue_Triangle.png"",""images/Blue_Triangle.png""]","true","[[58,231],[183,235],[249,129],[191,18],[66,14],[0,120]]","false",""
"visual-search-circle","170","2.2.0","412303","78409","visual_search_trial","660","","j","","","","","","","","","","null","red_blue_mix","8","[""images/Blue_Triangle.png"",""images/Blue_Circle.png"",""images/Blue_Triangle.png"",""images/Red_Circle.png"",""images/Red_Circle.png"",""images/Blue_Triangle.png""]","true","[[133,249],[237,179],[228,55],[116,0],[12,70],[21,194]]","false",""
"visual-search-circle","171","2.2.0","414258","78409","visual_search_trial","450","","j","","","","","","","","","","null","red_circle","8","[""images/Red_Circle.png"",""images/Red_Circle.png"",""images/Red_Circle.png"",""images/Red_Circle.png"",""images/Red_Circle.png"",""images/Red_Circle.png"",""images/Red_Circle.png"",""images/Red_Circle.png"",""images/Red_Circle.png""]","true","[[2,99],[14,183],[78,240],[163,243],[231,191],[248,107],[208,32],[129,0],[48,26]]","false",""
"visual-search-circle","172","2.2.0","416348","78409","visual_search_trial","586","","j","","","","","","","","","","null","blue_triangle","8","[""images/Blue_Triangle.png"",""images/Blue_Triangle.png"",""images/Blue_Triangle.png"",""images/Blue_Triangle.png"",""images/Blue_Triangle.png"",""images/Blue_Triangle.png"",""images/Blue_Triangle.png"",""images/Blue_Triangle.png"",""images/Blue_Triangle.png""]","true","[[187,16],[103,1],[29,44],[0,125],[29,205],[103,248],[187,233],[242,167],[242,82]]","false",""
"visual-search-circle","173","2.2.0","418417","78409","visual_search_trial","565","","f","","","","","","","","","","null","red_blue_mix","8","[""images/Red_Triangle.png"",""images/Red_Circle.png"",""images/Blue_Circle.png"",""images/Red_Circle.png"",""images/Blue_Circle.png"",""images/Red_Circle.png""]","true","[[82,7],[1,103],[44,220],[167,242],[248,146],[205,29]]","true",""
"visual-search-circle","174","2.2.0","420732","78409","visual_search_trial","811","","f","","","","","","","","","","null","blue_triangle","8","[""images/Red_Triangle.png"",""images/Blue_Triangle.png"",""images/Blue_Triangle.png"",""images/Blue_Triangle.png"",""images/Blue_Triangle.png"",""images/Blue_Triangle.png""]","true","[[99,247],[217,208],[243,86],[150,2],[32,41],[6,163]]","true",""
"visual-search-circle","175","2.2.0","422808","78409","visual_search_trial","572","","f","","","","","","","","","","null","red_circle","8","[""images/Red_Triangle.png"",""images/Red_Circle.png"",""images/Red_Circle.png""]","true","[[21,194],[237,179],[116,0]]","true",""
"visual-search-circle","176","2.2.0","425319","78409","visual_search_trial","1007","","j","","","","","","","","","","null","red_blue_mix","8","[""images/Blue_Circle.png"",""images/Red_Circle.png"",""images/Blue_Circle.png"",""images/Red_Circle.png"",""images/Red_Circle.png"",""images/Blue_Triangle.png"",""images/Red_Circle.png"",""images/Blue_Circle.png"",""images/Blue_Triangle.png""]","true","[[29,44],[0,125],[29,205],[103,248],[187,233],[242,167],[242,82],[187,16],[103,1]]","false",""
"visual-search-circle","177","2.2.0","427473","78409","visual_search_trial","649","","f","","","","","","","","","","null","red_circle","8","[""images/Red_Triangle.png"",""images/Red_Circle.png"",""images/Red_Circle.png"",""images/Red_Circle.png"",""images/Red_Circle.png"",""images/Red_Circle.png""]","true","[[219,42],[101,2],[6,84],[30,207],[148,247],[243,165]]","true",""
"visual-search-circle","178","2.2.0","429596","78409","visual_search_trial","621","","f","","","","","","","","","","null","blue_triangle","8","[""images/Red_Triangle.png"",""images/Blue_Triangle.png"",""images/Blue_Triangle.png""]","true","[[135,249],[227,53],[11,72]]","true",""
"visual-search-circle","179","2.2.0","431755","78409","visual_search_trial","655","","f","","","","","","","","","","null","red_blue_mix","8","[""images/Red_Triangle.png"",""images/Blue_Circle.png"",""images/Blue_Triangle.png"",""images/Blue_Triangle.png"",""images/Blue_Circle.png"",""images/Blue_Triangle.png"",""images/Blue_Triangle.png"",""images/Blue_Triangle.png"",""images/Red_Circle.png""]","true","[[171,240],[235,183],[247,99],[201,26],[120,0],[41,32],[1,107],[18,191],[86,243]]","true",""
"visual-search-circle","180","2.2.0","434209","78409","visual_search_trial","951","","j","","","","","","","","","","null","red_circle","8","[""images/Red_Circle.png"",""images/Red_Circle.png"",""images/Red_Circle.png""]","true","[[2,99],[163,243],[208,32]]","false",""
"visual-search-circle","181","2.2.0","436489","78409","visual_search_trial","776","","f","","","","","","","","","","null","red_circle","9","[""images/Red_Triangle.png"",""images/Red_Circle.png"",""images/Red_Circle.png"",""images/Red_Circle.png"",""images/Red_Circle.png"",""images/Red_Circle.png""]","true","[[84,243],[207,219],[247,101],[165,6],[42,30],[2,148]]","true",""
"visual-search-circle","182","2.2.0","438621","78409","visual_search_trial","627","","j","","","","","","","","","","null","blue_triangle","9","[""images/Blue_Triangle.png"",""images/Blue_Triangle.png"",""images/Blue_Triangle.png"",""images/Blue_Triangle.png"",""images/Blue_Triangle.png"",""images/Blue_Triangle.png"",""images/Blue_Triangle.png"",""images/Blue_Triangle.png"",""images/Blue_Triangle.png""]","true","[[233,62],[167,7],[82,7],[16,62],[1,146],[44,220],[125,250],[205,220],[248,146]]","false",""
"visual-search-circle","183","2.2.0","440718","78409","visual_search_trial","594","","j","","","","","","","","","","null","red_circle","9","[""images/Red_Circle.png"",""images/Red_Circle.png"",""images/Red_Circle.png""]","true","[[22,53],[114,249],[238,72]]","false",""
"visual-search-circle","184","2.2.0","442822","78409","visual_search_trial","600","","f","","","","","","","","","","null","red_blue_mix","9","[""images/Red_Triangle.png"",""images/Red_Circle.png"",""images/Red_Circle.png"",""images/Red_Circle.png"",""images/Blue_Triangle.png"",""images/Blue_Triangle.png"",""images/Blue_Circle.png"",""images/Red_Circle.png"",""images/Red_Circle.png""]","true","[[86,243],[171,240],[235,183],[247,99],[201,26],[120,0],[41,32],[1,107],[18,191]]","true",""
"visual-search-circle","185","2.2.0","445347","78409","visual_search_trial","1021","","j","","","","","","","","","","null","red_circle","9","[""images/Red_Circle.png"",""images/Red_Circle.png"",""images/Red_Circle.png"",""images/Red_Circle.png"",""images/Red_Circle.png"",""images/Red_Circle.png""]","true","[[96,3],[5,88],[33,210],[153,246],[244,161],[216,39]]","false",""
"visual-search-circle","186","2.2.0","447745","78409","visual_search_trial","894","","f","","","","","","","","","","null","red_blue_mix","9","[""images/Red_Triangle.png"",""images/Blue_Circle.png"",""images/Red_Circle.png"",""images/Red_Circle.png"",""images/Blue_Circle.png"",""images/Red_Circle.png""]","true","[[129,249],[235,183],[231,58],[120,0],[14,66],[18,191]]","true",""
"visual-search-circle","187","2.2.0","450031","78409","visual_search_trial","782","","f","","","","","","","","","","null","blue_triangle","9","[""images/Red_Triangle.png"",""images/Blue_Triangle.png"",""images/Blue_Triangle.png"",""images/Blue_Triangle.png"",""images/Blue_Triangle.png"",""images/Blue_Triangle.png""]","true","[[129,249],[235,183],[231,58],[120,0],[14,66],[18,191]]","true",""
"visual-search-circle","188","2.2.0","452204","78409","visual_search_trial","669","","j","","","","","","","","","","null","red_blue_mix","9","[""images/Blue_Triangle.png"",""images/Red_Circle.png"",""images/Blue_Circle.png"",""images/Blue_Triangle.png"",""images/Blue_Circle.png"",""images/Blue_Triangle.png"",""images/Blue_Circle.png"",""images/Red_Circle.png"",""images/Blue_Circle.png""]","true","[[245,157],[238,72],[177,11],[92,4],[22,53],[0,135],[36,213],[114,249],[196,227]]","false",""
"visual-search-circle","189","2.2.0","454366","78409","visual_search_trial","659","","f","","","","","","","","","","null","blue_triangle","9","[""images/Red_Triangle.png"",""images/Blue_Triangle.png"",""images/Blue_Triangle.png""]","true","[[103,248],[242,82],[29,44]]","true",""
"visual-search-circle","190","2.2.0","456465","78409","visual_search_trial","594","","f","","","","","","","","","","null","red_circle","9","[""images/Red_Triangle.png"",""images/Red_Circle.png"",""images/Red_Circle.png""]","true","[[228,55],[12,70],[133,249]]","true",""
"visual-search-circle","191","2.2.0","458747","78409","visual_search_trial","779","","f","","","","","","","","","","null","red_blue_mix","9","[""images/Red_Triangle.png"",""images/Red_Circle.png"",""images/Blue_Triangle.png""]","true","[[129,249],[231,58],[14,66]]","true",""
"visual-search-circle","192","2.2.0","461007","78409","visual_search_trial","755","","j","","","","","","","","","","null","red_circle","9","[""images/Red_Circle.png"",""images/Red_Circle.png"",""images/Red_Circle.png"",""images/Red_Circle.png"",""images/Red_Circle.png"",""images/Red_Circle.png"",""images/Red_Circle.png"",""images/Red_Circle.png"",""images/Red_Circle.png""]","true","[[9,171],[66,235],[150,247],[223,201],[249,120],[217,41],[142,1],[58,18],[6,86]]","false",""
"visual-search-circle","193","2.2.0","463012","78409","visual_search_trial","500","","f","","","","","","","","","","null","blue_triangle","9","[""images/Red_Triangle.png"",""images/Blue_Triangle.png"",""images/Blue_Triangle.png"",""images/Blue_Triangle.png"",""images/Blue_Triangle.png"",""images/Blue_Triangle.png"",""images/Blue_Triangle.png"",""images/Blue_Triangle.png"",""images/Blue_Triangle.png""]","true","[[167,242],[233,187],[248,103],[205,29],[125,0],[44,29],[1,103],[16,187],[82,242]]","true",""
"visual-search-circle","194","2.2.0","464982","78409","visual_search_trial","467","","j","","","","","","","","","","null","red_blue_mix","9","[""images/Blue_Circle.png"",""images/Blue_Circle.png"",""images/Blue_Circle.png""]","true","[[239,74],[23,51],[111,249]]","false",""
"visual-search-circle","195","2.2.0","467038","78409","visual_search_trial","553","","j","","","","","","","","","","null","blue_triangle","9","[""images/Blue_Triangle.png"",""images/Blue_Triangle.png"",""images/Blue_Triangle.png""]","true","[[239,175],[111,0],[23,198]]","false",""
"visual-search-circle","196","2.2.0","469100","78409","visual_search_trial","558","","f","","","","","","","","","","null","red_circle","9","[""images/Red_Triangle.png"",""images/Red_Circle.png"",""images/Red_Circle.png"",""images/Red_Circle.png"",""images/Red_Circle.png"",""images/Red_Circle.png"",""images/Red_Circle.png"",""images/Red_Circle.png"",""images/Red_Circle.png""]","true","[[74,239],[159,245],[228,194],[249,111],[211,35],[133,0],[51,23],[3,94],[12,179]]","true",""
"visual-search-circle","197","2.2.0","471087","78409","visual_search_trial","482","","j","","","","","","","","","","null","blue_triangle","9","[""images/Blue_Triangle.png"",""images/Blue_Triangle.png"",""images/Blue_Triangle.png"",""images/Blue_Triangle.png"",""images/Blue_Triangle.png"",""images/Blue_Triangle.png""]","true","[[114,0],[11,72],[22,196],[135,249],[238,177],[227,53]]","false",""
"visual-search-circle","198","2.2.0","473162","78409","visual_search_trial","571","","j","","","","","","","","","","null","red_blue_mix","9","[""images/Red_Circle.png"",""images/Blue_Circle.png"",""images/Red_Circle.png"",""images/Blue_Circle.png"",""images/Blue_Triangle.png"",""images/Red_Circle.png""]","true","[[118,0],[13,68],[20,193],[131,249],[236,181],[229,56]]","false",""
"html-keyboard-response","199","2.1.0","475359","78409","break","2197","<p>Great job so far! Please rest for a few seconds before continuing.</p>
                 <p>Press the <strong>R</strong> key on your keyboard to continue.</p>","r","","","","","","","","","","","","","","","","","R"
"visual-search-circle","200","2.2.0","477826","78409","visual_search_trial","963","","j","","","","","","","","","","null","red_blue_mix","10","[""images/Blue_Triangle.png"",""images/Red_Circle.png"",""images/Blue_Triangle.png""]","true","[[51,23],[74,239],[249,111]]","false",""
"visual-search-circle","201","2.2.0","480013","78409","visual_search_trial","683","","f","","","","","","","","","","null","blue_triangle","10","[""images/Red_Triangle.png"",""images/Blue_Triangle.png"",""images/Blue_Triangle.png"",""images/Blue_Triangle.png"",""images/Blue_Triangle.png"",""images/Blue_Triangle.png"",""images/Blue_Triangle.png"",""images/Blue_Triangle.png"",""images/Blue_Triangle.png""]","true","[[244,161],[240,76],[181,13],[96,3],[25,49],[0,131],[33,210],[109,249],[193,229]]","true",""
"visual-search-circle","202","2.2.0","482096","78409","visual_search_trial","580","","f","","","","","","","","","","null","red_circle","10","[""images/Red_Triangle.png"",""images/Red_Circle.png"",""images/Red_Circle.png""]","true","[[4,159],[214,211],[155,3]]","true",""
"visual-search-circle","203","2.2.0","484216","78409","visual_search_trial","616","","j","","","","","","","","","","null","blue_triangle","10","[""images/Blue_Triangle.png"",""images/Blue_Triangle.png"",""images/Blue_Triangle.png"",""images/Blue_Triangle.png"",""images/Blue_Triangle.png"",""images/Blue_Triangle.png"",""images/Blue_Triangle.png"",""images/Blue_Triangle.png"",""images/Blue_Triangle.png""]","true","[[72,11],[11,72],[4,157],[53,227],[135,249],[213,213],[249,135],[227,53],[157,4]]","false",""
"visual-search-circle","204","2.2.0","486268","78409","visual_search_trial","548","","j","","","","","","","","","","null","red_blue_mix","10","[""images/Red_Circle.png"",""images/Blue_Triangle.png"",""images/Blue_Triangle.png"",""images/Red_Circle.png"",""images/Red_Circle.png"",""images/Blue_Triangle.png""]","true","[[125,0],[16,62],[16,187],[125,250],[233,187],[233,62]]","false",""
"visual-search-circle","205","2.2.0","488876","78409","visual_search_trial","1105","","j","","","","","","","","","","null","red_circle","10","[""images/Red_Circle.png"",""images/Red_Circle.png"",""images/Red_Circle.png""]","true","[[33,210],[244,161],[96,3]]","false",""
"visual-search-circle","206","2.2.0","490837","78409","visual_search_trial","458","","j","","","","","","","","","","null","blue_triangle","10","[""images/Blue_Triangle.png"",""images/Blue_Triangle.png"",""images/Blue_Triangle.png"",""images/Blue_Triangle.png"",""images/Blue_Triangle.png"",""images/Blue_Triangle.png""]","true","[[157,245],[245,157],[213,36],[92,4],[4,92],[36,213]]","false",""
"visual-search-circle","207","2.2.0","493204","78409","visual_search_trial","862","","j","","","","","","","","","","null","red_circle","10","[""images/Red_Circle.png"",""images/Red_Circle.png"",""images/Red_Circle.png"",""images/Red_Circle.png"",""images/Red_Circle.png"",""images/Red_Circle.png""]","true","[[183,14],[58,18],[0,129],[66,235],[191,231],[249,120]]","false",""
"visual-search-circle","208","2.2.0","496533","78409","visual_search_trial","1824","","f","","","","","","","","","","null","red_blue_mix","10","[""images/Red_Triangle.png"",""images/Red_Circle.png"",""images/Blue_Circle.png"",""images/Red_Circle.png"",""images/Blue_Triangle.png"",""images/Blue_Triangle.png"",""images/Blue_Circle.png"",""images/Blue_Circle.png"",""images/Blue_Triangle.png""]","true","[[0,140],[39,216],[118,249],[200,224],[246,153],[236,68],[173,9],[88,5],[20,56]]","true",""
"visual-search-circle","209","2.2.0","498616","78409","visual_search_trial","579","","j","","","","","","","","","","null","red_circle","10","[""images/Red_Circle.png"",""images/Red_Circle.png"",""images/Red_Circle.png"",""images/Red_Circle.png"",""images/Red_Circle.png"",""images/Red_Circle.png"",""images/Red_Circle.png"",""images/Red_Circle.png"",""images/Red_Circle.png""]","true","[[9,171],[66,235],[150,247],[223,201],[249,120],[217,41],[142,1],[58,18],[6,86]]","false",""
"visual-search-circle","210","2.2.0","501152","78409","visual_search_trial","1033","","f","","","","","","","","","","null","blue_triangle","10","[""images/Red_Triangle.png"",""images/Blue_Triangle.png"",""images/Blue_Triangle.png"",""images/Blue_Triangle.png"",""images/Blue_Triangle.png"",""images/Blue_Triangle.png""]","true","[[249,122],[185,15],[60,17],[0,127],[64,234],[189,232]]","true",""
"visual-search-circle","211","2.2.0","503293","78409","visual_search_trial","637","","f","","","","","","","","","","null","red_circle","10","[""images/Red_Triangle.png"",""images/Red_Circle.png"",""images/Red_Circle.png"",""images/Red_Circle.png"",""images/Red_Circle.png"",""images/Red_Circle.png""]","true","[[245,157],[213,36],[92,4],[4,92],[36,213],[157,245]]","true",""
"visual-search-circle","212","2.2.0","505433","78409","visual_search_trial","638","","f","","","","","","","","","","null","red_blue_mix","10","[""images/Red_Triangle.png"",""images/Red_Circle.png"",""images/Blue_Circle.png""]","true","[[207,30],[2,101],[165,243]]","true",""
"visual-search-circle","213","2.2.0","507483","78409","visual_search_trial","547","","j","","","","","","","","","","null","blue_triangle","10","[""images/Blue_Triangle.png"",""images/Blue_Triangle.png"",""images/Blue_Triangle.png""]","true","[[248,146],[82,7],[44,220]]","false",""
"visual-search-circle","214","2.2.0","509518","78409","visual_search_trial","529","","f","","","","","","","","","","null","red_circle","10","[""images/Red_Triangle.png"",""images/Red_Circle.png"",""images/Red_Circle.png"",""images/Red_Circle.png"",""images/Red_Circle.png"",""images/Red_Circle.png"",""images/Red_Circle.png"",""images/Red_Circle.png"",""images/Red_Circle.png""]","true","[[127,249],[207,219],[248,144],[232,60],[165,6],[80,8],[15,64],[2,148],[46,222]]","true",""
"visual-search-circle","215","2.2.0","511697","78409","visual_search_trial","675","","j","","","","","","","","","","null","red_blue_mix","10","[""images/Blue_Circle.png"",""images/Red_Circle.png"",""images/Red_Circle.png"",""images/Blue_Circle.png"",""images/Red_Circle.png"",""images/Red_Circle.png"",""images/Blue_Circle.png"",""images/Blue_Triangle.png"",""images/Red_Circle.png""]","true","[[99,247],[183,235],[240,171],[243,86],[191,18],[107,1],[32,41],[0,120],[26,201]]","false",""
"visual-search-circle","216","2.2.0","513788","78409","visual_search_trial","588","","f","","","","","","","","","","null","blue_triangle","10","[""images/Red_Triangle.png"",""images/Blue_Triangle.png"",""images/Blue_Triangle.png""]","true","[[6,84],[148,247],[219,42]]","true",""
"visual-search-circle","217","2.2.0","516524","78409","visual_search_trial","1233","","f","","","","","","","","","","null","red_blue_mix","10","[""images/Red_Triangle.png"",""images/Red_Circle.png"",""images/Red_Circle.png"",""images/Red_Circle.png"",""images/Red_Circle.png"",""images/Blue_Triangle.png""]","true","[[236,181],[229,56],[118,0],[13,68],[20,193],[131,249]]","true",""
"visual-search-circle","218","2.2.0","518686","78409","visual_search_trial","659","","f","","","","","","","","","","null","red_blue_mix","11","[""images/Red_Triangle.png"",""images/Blue_Triangle.png"",""images/Red_Circle.png""]","true","[[36,213],[245,157],[92,4]]","true",""
"visual-search-circle","219","2.2.0","520782","78409","visual_search_trial","593","","f","","","","","","","","","","null","blue_triangle","11","[""images/Red_Triangle.png"",""images/Blue_Triangle.png"",""images/Blue_Triangle.png"",""images/Blue_Triangle.png"",""images/Blue_Triangle.png"",""images/Blue_Triangle.png""]","true","[[248,144],[203,27],[80,8],[1,105],[46,222],[169,241]]","true",""
"visual-search-circle","220","2.2.0","523080","78409","visual_search_trial","794","","f","","","","","","","","","","null","red_circle","11","[""images/Red_Triangle.png"",""images/Red_Circle.png"",""images/Red_Circle.png"",""images/Red_Circle.png"",""images/Red_Circle.png"",""images/Red_Circle.png"",""images/Red_Circle.png"",""images/Red_Circle.png"",""images/Red_Circle.png""]","true","[[90,245],[175,239],[237,179],[246,94],[198,23],[116,0],[38,35],[0,111],[21,194]]","true",""
"visual-search-circle","221","2.2.0","530913","78409","visual_search_trial","6330","","j","","","","","","","","","","null","red_blue_mix","11","[""images/Blue_Triangle.png"",""images/Blue_Circle.png"",""images/Red_Circle.png"",""images/Red_Circle.png"",""images/Blue_Triangle.png"",""images/Blue_Triangle.png""]","true","[[111,249],[226,198],[239,74],[138,0],[23,51],[10,175]]","false",""
"visual-search-circle","222","2.2.0","533553","78409","visual_search_trial","1137","","f","","","","","","","","","","null","red_circle","11","[""images/Red_Triangle.png"",""images/Red_Circle.png"",""images/Red_Circle.png""]","true","[[216,210],[153,3],[5,161]]","true",""
"visual-search-circle","223","2.2.0","536115","78409","visual_search_trial","1058","","j","","","","","","","","","","null","blue_triangle","11","[""images/Blue_Triangle.png"",""images/Blue_Triangle.png"",""images/Blue_Triangle.png"",""images/Blue_Triangle.png"",""images/Blue_Triangle.png"",""images/Blue_Triangle.png""]","true","[[36,213],[157,245],[245,157],[213,36],[92,4],[4,92]]","false",""
"visual-search-circle","224","2.2.0","538244","78409","visual_search_trial","625","","j","","","","","","","","","","null","red_circle","11","[""images/Red_Circle.png"",""images/Red_Circle.png"",""images/Red_Circle.png""]","true","[[133,249],[228,55],[12,70]]","false",""
"visual-search-circle","225","2.2.0","541086","78409","visual_search_trial","1339","","j","","","","","","","","","","null","blue_triangle","11","[""images/Blue_Triangle.png"",""images/Blue_Triangle.png"",""images/Blue_Triangle.png""]","true","[[159,245],[211,35],[3,94]]","false",""
"visual-search-circle","226","2.2.0","543630","78409","visual_search_trial","1040","","f","","","","","","","","","","null","red_circle","11","[""images/Red_Triangle.png"",""images/Red_Circle.png"",""images/Red_Circle.png"",""images/Red_Circle.png"",""images/Red_Circle.png"",""images/Red_Circle.png""]","true","[[1,107],[48,223],[171,240],[248,142],[201,26],[78,9]]","true",""
"visual-search-circle","227","2.2.0","545946","78409","visual_search_trial","811","","f","","","","","","","","","","null","red_blue_mix","11","[""images/Red_Triangle.png"",""images/Red_Circle.png"",""images/Blue_Circle.png"",""images/Blue_Triangle.png"",""images/Blue_Triangle.png"",""images/Blue_Circle.png"",""images/Blue_Circle.png"",""images/Blue_Triangle.png"",""images/Red_Circle.png""]","true","[[68,236],[153,246],[224,200],[249,118],[216,39],[140,0],[56,20],[5,88],[9,173]]","true",""
"visual-search-circle","228","2.2.0","547914","78409","visual_search_trial","463","","f","","","","","","","","","","null","blue_triangle","11","[""images/Red_Triangle.png"",""images/Blue_Triangle.png"",""images/Blue_Triangle.png"",""images/Blue_Triangle.png"",""images/Blue_Triangle.png"",""images/Blue_Triangle.png"",""images/Blue_Triangle.png"",""images/Blue_Triangle.png"",""images/Blue_Triangle.png""]","true","[[20,193],[88,244],[173,240],[236,181],[246,96],[200,25],[118,0],[39,33],[0,109]]","true",""
"visual-search-circle","229","2.2.0","550285","78409","visual_search_trial","868","","j","","","","","","","","","","null","red_blue_mix","11","[""images/Blue_Circle.png"",""images/Blue_Triangle.png"",""images/Blue_Triangle.png""]","true","[[78,240],[248,107],[48,26]]","false",""
"visual-search-circle","230","2.2.0","552309","78409","visual_search_trial","520","","j","","","","","","","","","","null","blue_triangle","11","[""images/Blue_Triangle.png"",""images/Blue_Triangle.png"",""images/Blue_Triangle.png"",""images/Blue_Triangle.png"",""images/Blue_Triangle.png"",""images/Blue_Triangle.png"",""images/Blue_Triangle.png"",""images/Blue_Triangle.png"",""images/Blue_Triangle.png""]","true","[[210,216],[249,140],[229,56],[161,5],[76,9],[13,68],[3,153],[49,224],[131,249]]","false",""
"visual-search-circle","231","2.2.0","554808","78409","visual_search_trial","995","","f","","","","","","","","","","null","red_blue_mix","11","[""images/Red_Triangle.png"",""images/Blue_Circle.png"",""images/Blue_Circle.png"",""images/Blue_Circle.png"",""images/Blue_Triangle.png"",""images/Blue_Triangle.png""]","true","[[177,238],[249,135],[196,22],[72,11],[0,114],[53,227]]","true",""
"visual-search-circle","232","2.2.0","556927","78409","visual_search_trial","615","","j","","","","","","","","","","null","red_circle","11","[""images/Red_Circle.png"",""images/Red_Circle.png"",""images/Red_Circle.png"",""images/Red_Circle.png"",""images/Red_Circle.png"",""images/Red_Circle.png""]","true","[[150,247],[243,163],[217,41],[99,2],[6,86],[32,208]]","false",""
"visual-search-circle","233","2.2.0","559818","78409","visual_search_trial","1386","","j","","","","","","","","","","null","red_blue_mix","11","[""images/Red_Circle.png"",""images/Blue_Triangle.png"",""images/Blue_Circle.png"",""images/Blue_Triangle.png"",""images/Blue_Circle.png"",""images/Red_Circle.png"",""images/Blue_Triangle.png"",""images/Blue_Triangle.png"",""images/Blue_Circle.png""]","true","[[169,241],[234,185],[247,101],[203,27],[122,0],[42,30],[1,105],[17,189],[84,243]]","false",""
"visual-search-circle","234","2.2.0","561971","78409","visual_search_trial","648","","j","","","","","","","","","","null","red_circle","11","[""images/Red_Circle.png"",""images/Red_Circle.png"",""images/Red_Circle.png"",""images/Red_Circle.png"",""images/Red_Circle.png"",""images/Red_Circle.png"",""images/Red_Circle.png"",""images/Red_Circle.png"",""images/Red_Circle.png""]","true","[[55,228],[138,249],[214,211],[249,133],[226,51],[155,3],[70,12],[10,74],[4,159]]","false",""
