"trial_type","trial_index","plugin_version","time_elapsed","sona_id","phase","rt","stimulus","response","consented","required_key","view_history","question_order","success","timeout","failed_images","failed_audio","failed_video","set_size","distractor_type","block","stimuli_list","correct","locations","target_present","break_key"
"pavlovia","0","null","1058","78676","","","","","","","","","","","","","","","","","","","","",""
"html-button-response","1","2.1.0","139293","78676","informed_consent","138230","
    <div style=""max-width: 900px; margin: 0 auto; padding: 20px; text-align: left; line-height: 1.6;"">
      <h1 style=""text-align: center; color: #333; font-size: 24px; margin-bottom: 10px; font-weight: bold;"">
        INFORMED CONSENT INFORMATION
      </h1>
      <h2 style=""text-align: center; color: #333; font-size: 22px; margin-bottom: 20px; font-weight: bold;"">
        FOR RESEARCH PARTICIPATION
      </h2>
      
      <p style=""margin-bottom: 10px;""><strong>Study Title:</strong> The Effects of Mindfulness and Attention on Life Satisfaction and Memory</p>
      <p style=""margin-bottom: 10px;""><strong>Principal Investigator:</strong> Ella Bremmer</p>
      <p style=""margin-bottom: 10px;""><strong>Co-Principal Investigator:</strong> Dr. Gregory Cox</p>
      <p style=""margin-bottom: 20px;""><strong>IRB Study Number:</strong> STUDY00006288</p>

      <p style=""margin-bottom: 15px;"">I am a student at the University at Albany, in the Department of Psychology. I am planning to conduct a research study, which I invite you to take part in.</p>
      
      <p style=""margin-bottom: 25px;"">This form has important information about the reasons for doing this study, what we will ask you to do, and the way we would like to use the information we collect about you.</p>

      <h3 style=""color: #333; font-size: 18px; margin-top: 25px; margin-bottom: 10px; font-weight: bold;"">
        Why are you doing this study?
      </h3>
      <p style=""margin-bottom: 15px;"">You are being asked to participate in a research study that aims to understand if there is a relationship between mindfulness, the ability to pay attention, and life satisfaction.</p>
      
      <p style=""margin-bottom: 25px;"">The purpose of this study is to investigate if having better control over one's attention influences overall life satisfaction. Your participation will help us better understand if mindfulness and attention do have a significant effect on life satisfaction (i.e., how people feel about their lives overall). Then you will be asked to perform a conjunction visual search task to test your capacity to direct your attention over a sustained period.</p>

      <h3 style=""color: #333; font-size: 18px; margin-top: 25px; margin-bottom: 10px; font-weight: bold;"">
        Why am I eligible to participate in this study?
      </h3>
      <p style=""margin-bottom: 25px;"">You are eligible to participate because you are a student at UAlbany, are at least 18 years old, and are proficient in English.</p>

      <h3 style=""color: #333; font-size: 18px; margin-top: 25px; margin-bottom: 10px; font-weight: bold;"">
        What will I do if I choose to be in this study?
      </h3>
      <p style=""margin-bottom: 10px;"">If you choose to take part in our study, you will do the following:</p>
      <p style=""margin-bottom: 8px; margin-left: 20px;"">1. Read and agree to the informed consent.</p>
      <p style=""margin-bottom: 8px; margin-left: 40px;"">a. If you choose not to agree to the informed consent, you will be taken back to the SONA site.</p>
      <p style=""margin-bottom: 8px; margin-left: 20px;"">2. Complete a demographic questionnaire that asks about your age, English proficiency, gender, and race.</p>
      <p style=""margin-bottom: 8px; margin-left: 20px;"">3. Read instructions for the visual search task, which asks you to indicate if a target (a red triangle) is present among various other colored shapes. You should press the ""F"" key if a red triangle is present, or the ""J"" key if the target is absent.</p>
      <p style=""margin-bottom: 8px; margin-left: 20px;"">4. You will be asked to respond to 270 visual search trials, whith the opportunity to take short breaks as you go</p>
      <p style=""margin-bottom: 8px; margin-left: 20px;"">5. You will complete the Mindfulness Attention Awareness Scale (MAAS), the Satisfaction With Life Scale (SWLS), and the Big Five Inventory.</p>
      <p style=""margin-bottom: 25px; margin-left: 20px;"">6.	After all questionnaires are completed, participants will be thanked for their time and will be provided the study debriefing. Following the debriefing, you will be sent back to the SONA research site.</p>

      <h3 style=""color: #333; font-size: 18px; margin-top: 25px; margin-bottom: 10px; font-weight: bold;"">
        For how long will I participate?
      </h3>
      <p style=""margin-bottom: 25px;"">This study is a single online session that you can complete on a computer. The study can be completed in less than 30 minutes but could require as long as 45 minutes to complete.</p>

      <h3 style=""color: #333; font-size: 18px; margin-top: 25px; margin-bottom: 10px; font-weight: bold;"">
        Where will I need to go to participate?
      </h3>
      <p style=""margin-bottom: 25px;"">All study procedures will take place online and can be completed wherever you have internet connection.</p>

      <h3 style=""color: #333; font-size: 18px; margin-top: 25px; margin-bottom: 10px; font-weight: bold;"">
        Are there any costs I should be aware of?
      </h3>
      <p style=""margin-bottom: 25px;"">Participation is not expected to incur cost to participants. Free internet access is available anywhere on campus and in the university library.</p>

      <h3 style=""color: #333; font-size: 18px; margin-top: 25px; margin-bottom: 10px; font-weight: bold;"">
        What are the possible risks or discomforts?
      </h3>
      <p style=""margin-bottom: 15px;"">As with all research, there is a chance that confidentiality of the information we collect from you could be breached – we will take steps to minimize this risk, as discussed in more detail below.</p>
      
      <p style=""margin-bottom: 25px;"">The risks associated with participating in this study are minimal; however, you may experience mild discomfort when reflecting on your mindfulness or life satisfaction when answering questionnaires in the study. To help minimize this, you can withdraw from the study at any time without any consequences. The study will take place online, and you will have the opportunity to take breaks while completing the survey to reduce the risk of eye strain associated with the use of electronic devices.</p>

      <h3 style=""color: #333; font-size: 18px; margin-top: 25px; margin-bottom: 10px; font-weight: bold;"">
        What are the possible benefits for me or others?
      </h3>
      <p style=""margin-bottom: 25px;"">While there are no direct personal benefits to participants of this study, you may find value in reflecting on your mindfulness, attention, and its impact on life satisfaction by completing this survey. The data you contribute may help advance society's understanding of how mindfulness and attention relate to overall well-being, potentially informing future programs or interventions aimed at improving student mental health, attention, and life satisfaction.</p>

      <h3 style=""color: #333; font-size: 18px; margin-top: 25px; margin-bottom: 10px; font-weight: bold;"">
        Will I receive compensation for my participation?
      </h3>
      <p style=""margin-bottom: 25px;"">SONA partial class credit will be awarded via the Psychology Department SONA research pool after you complete the survey in its entirety. Participants who withdraw before completing the survey will not receive partial credit. You will not receive monetary compensation for your participation in this study.</p>

      <h3 style=""color: #333; font-size: 18px; margin-top: 25px; margin-bottom: 10px; font-weight: bold;"">
        How will you protect the information you collect about me, and how will that information be shared?
      </h3>
      <p style=""margin-bottom: 15px;"">Results of this study may be used in publications and presentations. Your data will be handled as confidentially as possible, and no identifiable information will be collected to link your data back to you. If results of this study are published or presented, only de-identified summaries of data will be used.</p>
      
      <p style=""margin-bottom: 25px;"">To minimize the risks to confidentiality, all data will be collected anonymously via Pavlovia.org which uses encryption to protect information (https://pavlovia.org/docs/home/ethics). Only the student researcher (Ella Bremmer), mentor (Pierce Johnson), and faculty advisor (Gregory Cox) will have password-protected access to the data. Data will be stored on secure, university approved computers.</p>

      <h3 style=""color: #333; font-size: 18px; margin-top: 25px; margin-bottom: 10px; font-weight: bold;"">
        Will my data be used in future research?
      </h3>
      <p style=""margin-bottom: 25px;"">No personal identifiers will be collected in the data you provide us. Data will not be used in future research, and will be deleted after the required retention period.</p>

      <h3 style=""color: #333; font-size: 18px; margin-top: 25px; margin-bottom: 10px; font-weight: bold;"">
        What are my rights as a research participant?
      </h3>
      <p style=""margin-bottom: 15px;"">Participation in this study is voluntary. You do not have to answer any question you do not want to answer. If at any time and for any reason, you would prefer not to participate in this study, please feel free not to. If at any time you would like to stop participating, you are welcome to stop. You can take a break or stop altogether. You may withdraw from this study at any time, and you will not be penalized in any way for deciding to stop participation.</p>
      
      <p style=""margin-bottom: 25px;"">If you decide to withdraw from this study, any information collected from you before withdrawing will not be used, and your data will be deleted.</p>

      <h3 style=""color: #333; font-size: 18px; margin-top: 25px; margin-bottom: 10px; font-weight: bold;"">
        What if I am a University at Albany student or employee?
      </h3>
      <p style=""margin-bottom: 25px;"">You may choose not to participate or to stop participating in this research at any time. This will not affect your class standing, grades, employment, or any other aspects of your relationship with the University at Albany.</p>

      <h3 style=""color: #333; font-size: 18px; margin-top: 25px; margin-bottom: 10px; font-weight: bold;"">
        Who can I contact if I have questions or concerns about this research study?
      </h3>
      <p style=""margin-bottom: 15px;"">If you have questions, please feel free to stop and email the investigator, Ella Bremmer (ebremmer@albany.edu) or advisors, Pierce Johnson (pjohnson4@albany.edu) and Dr. Greg Cox (gecox@albany.edu). If you have questions later, you may also contact the researchers.</p>
      
      <p style=""margin-bottom: 10px;"">If you have any questions about your rights as a participant in this research, you can contact the following office at the University at Albany:</p>
      
      <p style=""margin-bottom: 5px; margin-left: 20px;"">Institutional Review Board</p>
      <p style=""margin-bottom: 5px; margin-left: 20px;"">University at Albany</p>
      <p style=""margin-bottom: 5px; margin-left: 20px;"">Office of Regulatory and Research Compliance</p>
      <p style=""margin-bottom: 5px; margin-left: 20px;"">1400 Washington Ave, Biology 227</p>
      <p style=""margin-bottom: 5px; margin-left: 20px;"">Albany, NY 12222</p>
      <p style=""margin-bottom: 5px; margin-left: 20px;"">Phone: 1-866-857-5459</p>
      <p style=""margin-bottom: 25px; margin-left: 20px;"">Email: rco@albany.edu</p>

      <h3 style=""color: #333; font-size: 18px; margin-top: 30px; margin-bottom: 10px; font-weight: bold;"">
        Consent
      </h3>
      <p style=""margin-bottom: 20px;"">I have read this form and the research study has been explained to me. I have been given the opportunity to ask questions and my questions have been answered. If I have additional questions, I have been told whom to contact. I agree to participate in the research study described above. I understand that I have the opportunity to download and save a copy of this form for my records.</p>

      <div style=""background-color: #f9f9f9; border: 2px solid #4CAF50; border-radius: 5px; padding: 20px; margin-top: 20px; margin-bottom: 20px;"">
        <p style=""margin-bottom: 15px; font-weight: bold;"">To save a copy of this consent form for your records, press Ctrl+P (Windows/Linux) or Cmd+P (Mac) and select ""Save as PDF"".</p>
        <p style=""margin-bottom: 0; font-weight: bold;"">By clicking ""I Agree"" below, I confirm that I agree to participate in the research study described above, and that doing so serves as my written signature consenting to take part in the study.</p>
      </div>
    </div>
  ","0","true","","","","","","","","","","","","","","","",""
"instructions","3","2.1.0","141362","78676","intro_instructions","2065","","","","f","[{""page_index"":0,""viewing_time"":2065}]","","","","","","","","","","","","","",""
"html-keyboard-response","4","2.1.0","143366","78676","intermediate_slide_demo","null","<p style=""font-size:4vw"">Demographic Questionnaire</p>","null","","","","","","","","","","","","","","","","",""
"survey-multi-choice","5","2.1.0","149360","78676","demographics_english","5989","","{""english"":""Strongly agree""}","","","","[0]","","","","","","","","","","","","",""
"survey-text","7","2.1.0","152443","78676","demographics_age","3079","","{""age"":""18""}","","","","","","","","","","","","","","","","",""
"survey-multi-select","9","2.1.0","155425","78676","demographics_gender","2976","","{""gender"":[""Woman""]}","","","","[0]","","","","","","","","","","","","",""
"survey-multi-choice","11","2.1.0","157842","78676","demographics_race","2413","","{""race"":""Hispanic or Latino""}","","","","[0]","","","","","","","","","","","","",""
"html-keyboard-response","12","2.1.0","159844","78676","intermediate_slide_VS","null","<p style=""font-size:4vw"">Visual Search Task</p>","null","","","","","","","","","","","","","","","","",""
"preload","13","2.1.0","160047","78676","image_preload","","","","","","","","true","false","[]","[]","[]","","","","","","","",""
"html-button-response","14","2.1.0","175706","78676","vs_instructions","15658","<p>On the following screens, you will see a series of colored shapes (triangles, squares, and circles) appear.</p>
    <p>Please Press 'F' if there <strong>is</strong> a red triangle among the shapes you see.</p>
    <p>Press 'J' if there is <strong>not</strong> a red triangle among the shapes you see.</p>","0","","","","","","","","","","","","","","","","",""
"visual-search-circle","15","2.2.0","179443","78676","visual_search_trial","2232","","f","","","","","","","","","","null","red_blue_mix","0","[""images/Red_Triangle.png"",""images/Blue_Triangle.png"",""images/Red_Circle.png""]","true","[[2,99],[163,243],[208,32]]","true",""
"visual-search-circle","16","2.2.0","183036","78676","visual_search_trial","2088","","j","","","","","","","","","","null","red_circle","0","[""images/Red_Circle.png"",""images/Red_Circle.png"",""images/Red_Circle.png"",""images/Red_Circle.png"",""images/Red_Circle.png"",""images/Red_Circle.png""]","true","[[27,203],[144,248],[241,169],[222,46],[105,1],[8,80]]","false",""
"visual-search-circle","17","2.2.0","188767","78676","visual_search_trial","4224","","j","","","","","","","","","","null","red_blue_mix","0","[""images/Red_Circle.png"",""images/Red_Circle.png"",""images/Blue_Triangle.png"",""images/Red_Circle.png"",""images/Blue_Triangle.png"",""images/Red_Circle.png"",""images/Red_Circle.png"",""images/Red_Circle.png"",""images/Blue_Circle.png""]","true","[[235,183],[247,99],[201,26],[120,0],[41,32],[1,107],[18,191],[86,243],[171,240]]","false",""
"visual-search-circle","18","2.2.0","191571","78676","visual_search_trial","1297","","f","","","","","","","","","","null","blue_triangle","0","[""images/Red_Triangle.png"",""images/Blue_Triangle.png"",""images/Blue_Triangle.png"",""images/Blue_Triangle.png"",""images/Blue_Triangle.png"",""images/Blue_Triangle.png"",""images/Blue_Triangle.png"",""images/Blue_Triangle.png"",""images/Blue_Triangle.png""]","true","[[211,35],[133,0],[51,23],[3,94],[12,179],[74,239],[159,245],[228,194],[249,111]]","true",""
"visual-search-circle","19","2.2.0","193979","78676","visual_search_trial","903","","f","","","","","","","","","","null","red_circle","0","[""images/Red_Triangle.png"",""images/Red_Circle.png"",""images/Red_Circle.png"",""images/Red_Circle.png"",""images/Red_Circle.png"",""images/Red_Circle.png""]","true","[[49,224],[173,240],[249,140],[200,25],[76,9],[0,109]]","true",""
"visual-search-circle","20","2.2.0","196535","78676","visual_search_trial","1051","","f","","","","","","","","","","null","blue_triangle","0","[""images/Red_Triangle.png"",""images/Blue_Triangle.png"",""images/Blue_Triangle.png"",""images/Blue_Triangle.png"",""images/Blue_Triangle.png"",""images/Blue_Triangle.png""]","true","[[72,11],[0,114],[53,227],[177,238],[249,135],[196,22]]","true",""
"visual-search-circle","21","2.2.0","199105","78676","visual_search_trial","1065","","f","","","","","","","","","","null","red_blue_mix","0","[""images/Red_Triangle.png"",""images/Blue_Circle.png"",""images/Blue_Circle.png"",""images/Blue_Triangle.png"",""images/Blue_Triangle.png"",""images/Blue_Circle.png""]","true","[[249,129],[191,18],[66,14],[0,120],[58,231],[183,235]]","true",""
"visual-search-circle","22","2.2.0","201623","78676","visual_search_trial","1011","","f","","","","","","","","","","null","red_circle","0","[""images/Red_Triangle.png"",""images/Red_Circle.png"",""images/Red_Circle.png"",""images/Red_Circle.png"",""images/Red_Circle.png"",""images/Red_Circle.png"",""images/Red_Circle.png"",""images/Red_Circle.png"",""images/Red_Circle.png""]","true","[[131,0],[49,25],[3,96],[13,181],[76,240],[161,244],[229,193],[249,109],[210,33]]","true",""
"visual-search-circle","23","2.2.0","204158","78676","visual_search_trial","1028","","j","","","","","","","","","","null","blue_triangle","0","[""images/Blue_Triangle.png"",""images/Blue_Triangle.png"",""images/Blue_Triangle.png"",""images/Blue_Triangle.png"",""images/Blue_Triangle.png"",""images/Blue_Triangle.png"",""images/Blue_Triangle.png"",""images/Blue_Triangle.png"",""images/Blue_Triangle.png""]","true","[[240,78],[183,14],[99,2],[26,48],[0,129],[32,208],[107,248],[191,231],[243,163]]","false",""
"visual-search-circle","24","2.2.0","206645","78676","visual_search_trial","980","","f","","","","","","","","","","null","red_blue_mix","0","[""images/Red_Triangle.png"",""images/Blue_Triangle.png"",""images/Red_Circle.png"",""images/Blue_Circle.png"",""images/Red_Circle.png"",""images/Red_Circle.png"",""images/Blue_Circle.png"",""images/Blue_Circle.png"",""images/Blue_Triangle.png""]","true","[[39,33],[0,109],[20,193],[88,244],[173,240],[236,181],[246,96],[200,25],[118,0]]","true",""
"visual-search-circle","25","2.2.0","209188","78676","visual_search_trial","1038","","j","","","","","","","","","","null","blue_triangle","0","[""images/Blue_Triangle.png"",""images/Blue_Triangle.png"",""images/Blue_Triangle.png"",""images/Blue_Triangle.png"",""images/Blue_Triangle.png"",""images/Blue_Triangle.png""]","true","[[6,86],[32,208],[150,247],[243,163],[217,41],[99,2]]","false",""
"visual-search-circle","26","2.2.0","211558","78676","visual_search_trial","865","","j","","","","","","","","","","null","red_blue_mix","0","[""images/Blue_Circle.png"",""images/Blue_Circle.png"",""images/Blue_Circle.png""]","true","[[29,44],[103,248],[242,82]]","false",""
"visual-search-circle","27","2.2.0","213731","78676","visual_search_trial","668","","j","","","","","","","","","","null","red_circle","0","[""images/Red_Circle.png"",""images/Red_Circle.png"",""images/Red_Circle.png""]","true","[[80,8],[46,222],[248,144]]","false",""
"visual-search-circle","28","2.2.0","216095","78676","visual_search_trial","860","","f","","","","","","","","","","null","blue_triangle","0","[""images/Red_Triangle.png"",""images/Blue_Triangle.png"",""images/Blue_Triangle.png""]","true","[[249,114],[53,22],[72,238]]","true",""
"visual-search-circle","29","2.2.0","218814","78676","visual_search_trial","1213","","j","","","","","","","","","","null","red_blue_mix","0","[""images/Red_Circle.png"",""images/Blue_Triangle.png"",""images/Red_Circle.png"",""images/Blue_Circle.png"",""images/Red_Circle.png"",""images/Blue_Circle.png""]","true","[[1,107],[48,223],[171,240],[248,142],[201,26],[78,9]]","false",""
"visual-search-circle","30","2.2.0","221255","78676","visual_search_trial","934","","j","","","","","","","","","","null","red_circle","0","[""images/Red_Circle.png"",""images/Red_Circle.png"",""images/Red_Circle.png"",""images/Red_Circle.png"",""images/Red_Circle.png"",""images/Red_Circle.png"",""images/Red_Circle.png"",""images/Red_Circle.png"",""images/Red_Circle.png""]","true","[[78,240],[163,243],[231,191],[248,107],[208,32],[129,0],[48,26],[2,99],[14,183]]","false",""
"visual-search-circle","31","2.2.0","223637","78676","visual_search_trial","877","","j","","","","","","","","","","null","blue_triangle","0","[""images/Blue_Triangle.png"",""images/Blue_Triangle.png"",""images/Blue_Triangle.png""]","true","[[80,241],[248,105],[46,27]]","false",""
"visual-search-circle","32","2.2.0","226003","78676","visual_search_trial","861","","f","","","","","","","","","","null","red_circle","0","[""images/Red_Triangle.png"",""images/Red_Circle.png"",""images/Red_Circle.png""]","true","[[146,1],[7,167],[220,205]]","true",""
"visual-search-circle","33","2.2.0","228401","78676","visual_search_trial","892","","j","","","","","","","","","","null","red_circle","1","[""images/Red_Circle.png"",""images/Red_Circle.png"",""images/Red_Circle.png"",""images/Red_Circle.png"",""images/Red_Circle.png"",""images/Red_Circle.png"",""images/Red_Circle.png"",""images/Red_Circle.png"",""images/Red_Circle.png""]","true","[[22,53],[0,135],[36,213],[114,249],[196,227],[245,157],[238,72],[177,11],[92,4]]","false",""
"visual-search-circle","34","2.2.0","230849","78676","visual_search_trial","943","","j","","","","","","","","","","null","red_blue_mix","1","[""images/Blue_Circle.png"",""images/Red_Circle.png"",""images/Red_Circle.png"",""images/Blue_Circle.png"",""images/Blue_Triangle.png"",""images/Red_Circle.png""]","true","[[210,33],[88,5],[3,96],[39,216],[161,244],[246,153]]","false",""
"visual-search-circle","35","2.2.0","233115","78676","visual_search_trial","761","","f","","","","","","","","","","null","red_circle","1","[""images/Red_Triangle.png"",""images/Red_Circle.png"",""images/Red_Circle.png"",""images/Red_Circle.png"",""images/Red_Circle.png"",""images/Red_Circle.png""]","true","[[0,138],[74,239],[198,226],[249,111],[175,10],[51,23]]","true",""
"visual-search-circle","36","2.2.0","235816","78676","visual_search_trial","1194","","j","","","","","","","","","","null","blue_triangle","1","[""images/Blue_Triangle.png"",""images/Blue_Triangle.png"",""images/Blue_Triangle.png"",""images/Blue_Triangle.png"",""images/Blue_Triangle.png"",""images/Blue_Triangle.png"",""images/Blue_Triangle.png"",""images/Blue_Triangle.png"",""images/Blue_Triangle.png""]","true","[[13,181],[76,240],[161,244],[229,193],[249,109],[210,33],[131,0],[49,25],[3,96]]","false",""
"visual-search-circle","37","2.2.0","238335","78676","visual_search_trial","1012","","f","","","","","","","","","","null","red_circle","1","[""images/Red_Triangle.png"",""images/Red_Circle.png"",""images/Red_Circle.png"",""images/Red_Circle.png"",""images/Red_Circle.png"",""images/Red_Circle.png"",""images/Red_Circle.png"",""images/Red_Circle.png"",""images/Red_Circle.png""]","true","[[138,0],[55,21],[4,90],[10,175],[70,237],[155,246],[226,198],[249,116],[214,38]]","true",""
"visual-search-circle","38","2.2.0","240655","78676","visual_search_trial","813","","f","","","","","","","","","","null","red_blue_mix","1","[""images/Red_Triangle.png"",""images/Red_Circle.png"",""images/Blue_Circle.png"",""images/Blue_Circle.png"",""images/Blue_Triangle.png"",""images/Blue_Triangle.png"",""images/Red_Circle.png"",""images/Red_Circle.png"",""images/Blue_Circle.png""]","true","[[35,211],[111,249],[194,228],[245,159],[239,74],[179,12],[94,3],[23,51],[0,133]]","true",""
"visual-search-circle","39","2.2.0","243034","78676","visual_search_trial","875","","f","","","","","","","","","","null","red_circle","1","[""images/Red_Triangle.png"",""images/Red_Circle.png"",""images/Red_Circle.png""]","true","[[237,179],[116,0],[21,194]]","true",""
"visual-search-circle","40","2.2.0","245273","78676","visual_search_trial","733","","f","","","","","","","","","","null","blue_triangle","1","[""images/Red_Triangle.png"",""images/Blue_Triangle.png"",""images/Blue_Triangle.png"",""images/Blue_Triangle.png"",""images/Blue_Triangle.png"",""images/Blue_Triangle.png"",""images/Blue_Triangle.png"",""images/Blue_Triangle.png"",""images/Blue_Triangle.png""]","true","[[0,131],[33,210],[109,249],[193,229],[244,161],[240,76],[181,13],[96,3],[25,49]]","true",""
"visual-search-circle","41","2.2.0","248149","78676","visual_search_trial","1369","","j","","","","","","","","","","null","red_blue_mix","1","[""images/Blue_Circle.png"",""images/Red_Circle.png"",""images/Blue_Circle.png"",""images/Blue_Circle.png"",""images/Blue_Circle.png"",""images/Blue_Triangle.png"",""images/Red_Circle.png"",""images/Blue_Circle.png"",""images/Red_Circle.png""]","true","[[169,241],[234,185],[247,101],[203,27],[122,0],[42,30],[1,105],[17,189],[84,243]]","false",""
"visual-search-circle","42","2.2.0","250527","78676","visual_search_trial","873","","f","","","","","","","","","","null","blue_triangle","1","[""images/Red_Triangle.png"",""images/Blue_Triangle.png"",""images/Blue_Triangle.png""]","true","[[120,0],[18,191],[235,183]]","true",""
"visual-search-circle","43","2.2.0","253319","78676","visual_search_trial","1288","","j","","","","","","","","","","null","red_blue_mix","1","[""images/Blue_Triangle.png"",""images/Red_Circle.png"",""images/Blue_Circle.png""]","true","[[167,7],[1,146],[205,220]]","false",""
"visual-search-circle","44","2.2.0","255742","78676","visual_search_trial","918","","j","","","","","","","","","","null","blue_triangle","1","[""images/Blue_Triangle.png"",""images/Blue_Triangle.png"",""images/Blue_Triangle.png"",""images/Blue_Triangle.png"",""images/Blue_Triangle.png"",""images/Blue_Triangle.png""]","true","[[193,229],[249,118],[181,13],[56,20],[0,131],[68,236]]","false",""
"visual-search-circle","45","2.2.0","258187","78676","visual_search_trial","941","","f","","","","","","","","","","null","red_blue_mix","1","[""images/Red_Triangle.png"",""images/Blue_Triangle.png"",""images/Blue_Circle.png""]","true","[[249,127],[64,15],[60,232]]","true",""
"visual-search-circle","46","2.2.0","260498","78676","visual_search_trial","806","","j","","","","","","","","","","null","red_circle","1","[""images/Red_Circle.png"",""images/Red_Circle.png"",""images/Red_Circle.png""]","true","[[249,122],[60,17],[64,234]]","false",""
"visual-search-circle","47","2.2.0","263065","78676","visual_search_trial","1062","","f","","","","","","","","","","null","blue_triangle","1","[""images/Red_Triangle.png"",""images/Blue_Triangle.png"",""images/Blue_Triangle.png"",""images/Blue_Triangle.png"",""images/Blue_Triangle.png"",""images/Blue_Triangle.png""]","true","[[5,161],[96,246],[216,210],[244,88],[153,3],[33,39]]","true",""
"visual-search-circle","48","2.2.0","265650","78676","visual_search_trial","1081","","j","","","","","","","","","","null","red_circle","1","[""images/Red_Circle.png"",""images/Red_Circle.png"",""images/Red_Circle.png"",""images/Red_Circle.png"",""images/Red_Circle.png"",""images/Red_Circle.png""]","true","[[249,118],[181,13],[56,20],[0,131],[68,236],[193,229]]","false",""
"visual-search-circle","49","2.2.0","269175","78676","visual_search_trial","2021","","j","","","","","","","","","","null","blue_triangle","1","[""images/Blue_Triangle.png"",""images/Blue_Triangle.png"",""images/Blue_Triangle.png""]","true","[[153,3],[5,161],[216,210]]","false",""
"visual-search-circle","50","2.2.0","271514","78676","visual_search_trial","835","","f","","","","","","","","","","null","red_blue_mix","1","[""images/Red_Triangle.png"",""images/Blue_Triangle.png"",""images/Blue_Circle.png"",""images/Red_Circle.png"",""images/Blue_Triangle.png"",""images/Blue_Circle.png""]","true","[[30,42],[6,165],[101,247],[219,207],[243,84],[148,2]]","true",""
"html-keyboard-response","51","2.1.0","274793","78676","break","3277","<p>Great job so far! Please rest for a few seconds before continuing.</p>
                 <p>Press the <strong>C</strong> key on your keyboard to continue.</p>","c","","","","","","","","","","","","","","","","","C"
"visual-search-circle","52","2.2.0","277689","78676","visual_search_trial","1393","","f","","","","","","","","","","null","red_blue_mix","2","[""images/Red_Triangle.png"",""images/Blue_Triangle.png"",""images/Blue_Triangle.png"",""images/Red_Circle.png"",""images/Red_Circle.png"",""images/Blue_Circle.png""]","true","[[235,183],[231,58],[120,0],[14,66],[18,191],[129,249]]","true",""
"visual-search-circle","53","2.2.0","280159","78676","visual_search_trial","963","","j","","","","","","","","","","null","red_circle","2","[""images/Red_Circle.png"",""images/Red_Circle.png"",""images/Red_Circle.png"",""images/Red_Circle.png"",""images/Red_Circle.png"",""images/Red_Circle.png"",""images/Red_Circle.png"",""images/Red_Circle.png"",""images/Red_Circle.png""]","true","[[198,23],[116,0],[38,35],[0,111],[21,194],[90,245],[175,239],[237,179],[246,94]]","false",""
"visual-search-circle","54","2.2.0","282602","78676","visual_search_trial","939","","f","","","","","","","","","","null","red_blue_mix","2","[""images/Red_Triangle.png"",""images/Blue_Circle.png"",""images/Red_Circle.png""]","true","[[26,201],[240,171],[107,1]]","true",""
"visual-search-circle","55","2.2.0","285212","78676","visual_search_trial","1105","","j","","","","","","","","","","null","red_circle","2","[""images/Red_Circle.png"",""images/Red_Circle.png"",""images/Red_Circle.png"",""images/Red_Circle.png"",""images/Red_Circle.png"",""images/Red_Circle.png""]","true","[[66,235],[191,231],[249,120],[183,14],[58,18],[0,129]]","false",""
"visual-search-circle","56","2.2.0","287575","78676","visual_search_trial","857","","j","","","","","","","","","","null","blue_triangle","2","[""images/Blue_Triangle.png"",""images/Blue_Triangle.png"",""images/Blue_Triangle.png"",""images/Blue_Triangle.png"",""images/Blue_Triangle.png"",""images/Blue_Triangle.png""]","true","[[11,177],[114,249],[227,196],[238,72],[135,0],[22,53]]","false",""
"visual-search-circle","57","2.2.0","289986","78676","visual_search_trial","908","","j","","","","","","","","","","null","red_blue_mix","2","[""images/Blue_Triangle.png"",""images/Blue_Triangle.png"",""images/Red_Circle.png""]","true","[[233,187],[125,0],[16,187]]","false",""
"visual-search-circle","58","2.2.0","292337","78676","visual_search_trial","846","","f","","","","","","","","","","null","blue_triangle","2","[""images/Red_Triangle.png"",""images/Blue_Triangle.png"",""images/Blue_Triangle.png""]","true","[[0,120],[183,235],[191,18]]","true",""
"visual-search-circle","59","2.2.0","294691","78676","visual_search_trial","850","","f","","","","","","","","","","null","red_circle","2","[""images/Red_Triangle.png"",""images/Red_Circle.png"",""images/Red_Circle.png"",""images/Red_Circle.png"",""images/Red_Circle.png"",""images/Red_Circle.png""]","true","[[239,175],[226,51],[111,0],[10,74],[23,198],[138,249]]","true",""
"visual-search-circle","60","2.2.0","297477","78676","visual_search_trial","1280","","f","","","","","","","","","","null","blue_triangle","2","[""images/Red_Triangle.png"",""images/Blue_Triangle.png"",""images/Blue_Triangle.png"",""images/Blue_Triangle.png"",""images/Blue_Triangle.png"",""images/Blue_Triangle.png""]","true","[[234,64],[127,0],[17,60],[15,185],[122,249],[232,189]]","true",""
"visual-search-circle","61","2.2.0","299854","78676","visual_search_trial","872","","f","","","","","","","","","","null","red_circle","2","[""images/Red_Triangle.png"",""images/Red_Circle.png"",""images/Red_Circle.png""]","true","[[159,4],[3,155],[211,214]]","true",""
"visual-search-circle","62","2.2.0","302222","78676","visual_search_trial","861","","f","","","","","","","","","","null","red_blue_mix","2","[""images/Red_Triangle.png"",""images/Red_Circle.png"",""images/Red_Circle.png"",""images/Blue_Circle.png"",""images/Blue_Triangle.png"",""images/Red_Circle.png"",""images/Blue_Triangle.png"",""images/Blue_Circle.png"",""images/Blue_Triangle.png""]","true","[[125,0],[44,29],[1,103],[16,187],[82,242],[167,242],[233,187],[248,103],[205,29]]","true",""
"visual-search-circle","63","2.2.0","304637","78676","visual_search_trial","908","","f","","","","","","","","","","null","blue_triangle","2","[""images/Red_Triangle.png"",""images/Blue_Triangle.png"",""images/Blue_Triangle.png"",""images/Blue_Triangle.png"",""images/Blue_Triangle.png"",""images/Blue_Triangle.png"",""images/Blue_Triangle.png"",""images/Blue_Triangle.png"",""images/Blue_Triangle.png""]","true","[[46,27],[2,101],[15,185],[80,241],[165,243],[232,189],[248,105],[207,30],[127,0]]","true",""
"visual-search-circle","64","2.2.0","307110","78676","visual_search_trial","968","","j","","","","","","","","","","null","red_circle","2","[""images/Red_Circle.png"",""images/Red_Circle.png"",""images/Red_Circle.png""]","true","[[88,5],[39,216],[246,153]]","false",""
"visual-search-circle","65","2.2.0","309669","78676","visual_search_trial","1055","","j","","","","","","","","","","null","blue_triangle","2","[""images/Blue_Triangle.png"",""images/Blue_Triangle.png"",""images/Blue_Triangle.png""]","true","[[236,181],[118,0],[20,193]]","false",""
"visual-search-circle","66","2.2.0","312198","78676","visual_search_trial","1021","","j","","","","","","","","","","null","red_blue_mix","2","[""images/Blue_Triangle.png"",""images/Blue_Triangle.png"",""images/Blue_Circle.png"",""images/Blue_Triangle.png"",""images/Blue_Circle.png"",""images/Blue_Triangle.png"",""images/Red_Circle.png"",""images/Blue_Circle.png"",""images/Red_Circle.png""]","true","[[229,193],[249,109],[210,33],[131,0],[49,25],[3,96],[13,181],[76,240],[161,244]]","false",""
"visual-search-circle","67","2.2.0","314512","78676","visual_search_trial","807","","f","","","","","","","","","","null","red_circle","2","[""images/Red_Triangle.png"",""images/Red_Circle.png"",""images/Red_Circle.png"",""images/Red_Circle.png"",""images/Red_Circle.png"",""images/Red_Circle.png"",""images/Red_Circle.png"",""images/Red_Circle.png"",""images/Red_Circle.png""]","true","[[99,2],[26,48],[0,129],[32,208],[107,248],[191,231],[243,163],[240,78],[183,14]]","true",""
"visual-search-circle","68","2.2.0","316923","78676","visual_search_trial","904","","j","","","","","","","","","","null","blue_triangle","2","[""images/Blue_Triangle.png"",""images/Blue_Triangle.png"",""images/Blue_Triangle.png"",""images/Blue_Triangle.png"",""images/Blue_Triangle.png"",""images/Blue_Triangle.png"",""images/Blue_Triangle.png"",""images/Blue_Triangle.png"",""images/Blue_Triangle.png""]","true","[[244,161],[240,76],[181,13],[96,3],[25,49],[0,131],[33,210],[109,249],[193,229]]","false",""
"visual-search-circle","69","2.2.0","319443","78676","visual_search_trial","1014","","j","","","","","","","","","","null","red_blue_mix","2","[""images/Blue_Circle.png"",""images/Blue_Triangle.png"",""images/Blue_Triangle.png"",""images/Blue_Circle.png"",""images/Red_Circle.png"",""images/Blue_Triangle.png""]","true","[[84,6],[2,101],[42,219],[165,243],[247,148],[207,30]]","false",""
"visual-search-circle","70","2.2.0","322583","78676","visual_search_trial","1635","","j","","","","","","","","","","null","blue_triangle","3","[""images/Blue_Triangle.png"",""images/Blue_Triangle.png"",""images/Blue_Triangle.png"",""images/Blue_Triangle.png"",""images/Blue_Triangle.png"",""images/Blue_Triangle.png""]","true","[[122,0],[15,64],[17,189],[127,249],[234,185],[232,60]]","false",""
"visual-search-circle","71","2.2.0","324964","78676","visual_search_trial","877","","j","","","","","","","","","","null","red_circle","3","[""images/Red_Circle.png"",""images/Red_Circle.png"",""images/Red_Circle.png"",""images/Red_Circle.png"",""images/Red_Circle.png"",""images/Red_Circle.png""]","true","[[165,6],[42,30],[2,148],[84,243],[207,219],[247,101]]","false",""
"visual-search-circle","72","2.2.0","327375","78676","visual_search_trial","907","","f","","","","","","","","","","null","red_blue_mix","3","[""images/Red_Triangle.png"",""images/Red_Circle.png"",""images/Blue_Circle.png""]","true","[[76,240],[249,109],[49,25]]","true",""
"visual-search-circle","73","2.2.0","329983","78676","visual_search_trial","1103","","f","","","","","","","","","","null","blue_triangle","3","[""images/Red_Triangle.png"",""images/Blue_Triangle.png"",""images/Blue_Triangle.png""]","true","[[171,9],[1,142],[201,223]]","true",""
"visual-search-circle","74","2.2.0","333161","78676","visual_search_trial","1673","","f","","","","","","","","","","null","red_blue_mix","3","[""images/Red_Circle.png"",""images/Red_Circle.png"",""images/Blue_Triangle.png"",""images/Blue_Circle.png"",""images/Red_Circle.png"",""images/Blue_Triangle.png""]","false","[[66,235],[191,231],[249,120],[183,14],[58,18],[0,129]]","false",""
"visual-search-circle","75","2.2.0","335925","78676","visual_search_trial","1258","","j","","","","","","","","","","null","red_circle","3","[""images/Red_Circle.png"",""images/Red_Circle.png"",""images/Red_Circle.png"",""images/Red_Circle.png"",""images/Red_Circle.png"",""images/Red_Circle.png"",""images/Red_Circle.png"",""images/Red_Circle.png"",""images/Red_Circle.png""]","true","[[213,36],[135,0],[53,22],[4,92],[11,177],[72,238],[157,245],[227,196],[249,114]]","false",""
"visual-search-circle","76","2.2.0","338413","78676","visual_search_trial","985","","j","","","","","","","","","","null","red_blue_mix","3","[""images/Red_Circle.png"",""images/Blue_Triangle.png"",""images/Blue_Circle.png""]","true","[[248,146],[82,7],[44,220]]","false",""
"visual-search-circle","77","2.2.0","341114","78676","visual_search_trial","1194","","j","","","","","","","","","","null","blue_triangle","3","[""images/Blue_Triangle.png"",""images/Blue_Triangle.png"",""images/Blue_Triangle.png"",""images/Blue_Triangle.png"",""images/Blue_Triangle.png"",""images/Blue_Triangle.png"",""images/Blue_Triangle.png"",""images/Blue_Triangle.png"",""images/Blue_Triangle.png""]","true","[[58,18],[6,86],[9,171],[66,235],[150,247],[223,201],[249,120],[217,41],[142,1]]","false",""
"visual-search-circle","78","2.2.0","344408","78676","visual_search_trial","1788","","f","","","","","","","","","","null","red_blue_mix","3","[""images/Red_Triangle.png"",""images/Blue_Triangle.png"",""images/Red_Circle.png"",""images/Blue_Circle.png"",""images/Blue_Circle.png"",""images/Red_Circle.png"",""images/Red_Circle.png"",""images/Red_Circle.png"",""images/Blue_Triangle.png""]","true","[[169,241],[234,185],[247,101],[203,27],[122,0],[42,30],[1,105],[17,189],[84,243]]","true",""
"visual-search-circle","79","2.2.0","346875","78676","visual_search_trial","962","","f","","","","","","","","","","null","red_circle","3","[""images/Red_Triangle.png"",""images/Red_Circle.png"",""images/Red_Circle.png"",""images/Red_Circle.png"",""images/Red_Circle.png"",""images/Red_Circle.png""]","true","[[3,94],[38,214],[159,245],[246,155],[211,35],[90,4]]","true",""
"visual-search-circle","80","2.2.0","349471","78676","visual_search_trial","1091","","f","","","","","","","","","","null","blue_triangle","3","[""images/Red_Triangle.png"",""images/Blue_Triangle.png"",""images/Blue_Triangle.png"",""images/Blue_Triangle.png"",""images/Blue_Triangle.png"",""images/Blue_Triangle.png""]","true","[[0,131],[68,236],[193,229],[249,118],[181,13],[56,20]]","true",""
"visual-search-circle","81","2.2.0","352003","78676","visual_search_trial","1028","","f","","","","","","","","","","null","red_circle","3","[""images/Red_Triangle.png"",""images/Red_Circle.png"",""images/Red_Circle.png""]","true","[[68,13],[56,229],[249,131]]","true",""
"visual-search-circle","82","2.2.0","354579","78676","visual_search_trial","1069","","j","","","","","","","","","","null","red_blue_mix","3","[""images/Blue_Triangle.png"",""images/Blue_Triangle.png"",""images/Blue_Triangle.png"",""images/Red_Circle.png"",""images/Red_Circle.png"",""images/Blue_Circle.png"",""images/Blue_Circle.png"",""images/Red_Circle.png"",""images/Red_Circle.png""]","true","[[231,58],[163,6],[78,9],[14,66],[2,150],[48,223],[129,249],[208,217],[248,142]]","false",""
"visual-search-circle","83","2.2.0","356989","78676","visual_search_trial","903","","f","","","","","","","","","","null","red_circle","3","[""images/Red_Triangle.png"",""images/Red_Circle.png"",""images/Red_Circle.png"",""images/Red_Circle.png"",""images/Red_Circle.png"",""images/Red_Circle.png"",""images/Red_Circle.png"",""images/Red_Circle.png"",""images/Red_Circle.png""]","true","[[114,249],[196,227],[245,157],[238,72],[177,11],[92,4],[22,53],[0,135],[36,213]]","true",""
"visual-search-circle","84","2.2.0","359322","78676","visual_search_trial","828","","j","","","","","","","","","","null","blue_triangle","3","[""images/Blue_Triangle.png"",""images/Blue_Triangle.png"",""images/Blue_Triangle.png""]","true","[[237,70],[21,55],[116,249]]","false",""
"visual-search-circle","85","2.2.0","361805","78676","visual_search_trial","979","","f","","","","","","","","","","null","red_blue_mix","3","[""images/Red_Triangle.png"",""images/Red_Circle.png"",""images/Blue_Triangle.png"",""images/Blue_Triangle.png"",""images/Red_Circle.png"",""images/Blue_Circle.png""]","true","[[135,0],[22,53],[11,177],[114,249],[227,196],[238,72]]","true",""
"visual-search-circle","86","2.2.0","364208","78676","visual_search_trial","898","","j","","","","","","","","","","null","red_circle","3","[""images/Red_Circle.png"",""images/Red_Circle.png"",""images/Red_Circle.png""]","true","[[183,14],[0,129],[191,231]]","false",""
"visual-search-circle","87","2.2.0","366629","78676","visual_search_trial","913","","f","","","","","","","","","","null","blue_triangle","3","[""images/Red_Triangle.png"",""images/Blue_Triangle.png"",""images/Blue_Triangle.png"",""images/Blue_Triangle.png"",""images/Blue_Triangle.png"",""images/Blue_Triangle.png"",""images/Blue_Triangle.png"",""images/Blue_Triangle.png"",""images/Blue_Triangle.png""]","true","[[219,207],[249,127],[222,46],[148,2],[64,15],[8,80],[6,165],[60,232],[144,248]]","true",""
"html-keyboard-response","88","2.1.0","416448","78676","break","49819","<p>Great job so far! Please rest for a few seconds before continuing.</p>
                 <p>Press the <strong>B</strong> key on your keyboard to continue.</p>","b","","","","","","","","","","","","","","","","","B"
"visual-search-circle","89","2.2.0","419026","78676","visual_search_trial","1072","","j","","","","","","","","","","null","blue_triangle","4","[""images/Blue_Triangle.png"",""images/Blue_Triangle.png"",""images/Blue_Triangle.png"",""images/Blue_Triangle.png"",""images/Blue_Triangle.png"",""images/Blue_Triangle.png""]","true","[[114,249],[227,196],[238,72],[135,0],[22,53],[11,177]]","false",""
"visual-search-circle","90","2.2.0","421408","78676","visual_search_trial","878","","f","","","","","","","","","","null","red_blue_mix","4","[""images/Red_Triangle.png"",""images/Red_Circle.png"",""images/Red_Circle.png""]","true","[[4,159],[214,211],[155,3]]","true",""
"visual-search-circle","91","2.2.0","423908","78676","visual_search_trial","993","","f","","","","","","","","","","null","red_circle","4","[""images/Red_Triangle.png"",""images/Red_Circle.png"",""images/Red_Circle.png"",""images/Red_Circle.png"",""images/Red_Circle.png"",""images/Red_Circle.png"",""images/Red_Circle.png"",""images/Red_Circle.png"",""images/Red_Circle.png""]","true","[[58,231],[142,248],[217,208],[249,129],[223,48],[150,2],[66,14],[9,78],[6,163]]","true",""
"visual-search-circle","92","2.2.0","426108","78676","visual_search_trial","696","","j","","","","","","","","","","null","blue_triangle","4","[""images/Blue_Triangle.png"",""images/Blue_Triangle.png"",""images/Blue_Triangle.png""]","true","[[220,205],[146,1],[7,167]]","false",""
"visual-search-circle","93","2.2.0","428248","78676","visual_search_trial","634","","j","","","","","","","","","","null","red_circle","4","[""images/Red_Circle.png"",""images/Red_Circle.png"",""images/Red_Circle.png"",""images/Red_Circle.png"",""images/Red_Circle.png"",""images/Red_Circle.png""]","true","[[105,248],[222,203],[241,80],[144,1],[27,46],[8,169]]","false",""
"visual-search-circle","94","2.2.0","430443","78676","visual_search_trial","690","","f","","","","","","","","","","null","red_blue_mix","4","[""images/Red_Triangle.png"",""images/Red_Circle.png"",""images/Blue_Triangle.png"",""images/Blue_Triangle.png"",""images/Blue_Circle.png"",""images/Blue_Triangle.png""]","true","[[0,114],[53,227],[177,238],[249,135],[196,22],[72,11]]","true",""
"visual-search-circle","95","2.2.0","432658","78676","visual_search_trial","711","","j","","","","","","","","","","null","red_circle","4","[""images/Red_Circle.png"",""images/Red_Circle.png"",""images/Red_Circle.png""]","true","[[216,39],[5,88],[153,246]]","false",""
"visual-search-circle","96","2.2.0","435710","78676","visual_search_trial","1545","","j","","","","","","","","","","null","red_blue_mix","4","[""images/Blue_Circle.png"",""images/Blue_Triangle.png"",""images/Blue_Triangle.png"",""images/Blue_Triangle.png"",""images/Blue_Triangle.png"",""images/Blue_Triangle.png"",""images/Red_Circle.png"",""images/Blue_Circle.png"",""images/Blue_Triangle.png""]","true","[[193,20],[109,0],[33,39],[0,118],[25,200],[96,246],[181,236],[240,173],[244,88]]","false",""
"visual-search-circle","97","2.2.0","437910","78676","visual_search_trial","696","","f","","","","","","","","","","null","blue_triangle","4","[""images/Red_Triangle.png"",""images/Blue_Triangle.png"",""images/Blue_Triangle.png"",""images/Blue_Triangle.png"",""images/Blue_Triangle.png"",""images/Blue_Triangle.png""]","true","[[101,2],[6,84],[30,207],[148,247],[243,165],[219,42]]","true",""
"visual-search-circle","98","2.2.0","440091","78676","visual_search_trial","676","","f","","","","","","","","","","null","red_circle","4","[""images/Red_Triangle.png"",""images/Red_Circle.png"",""images/Red_Circle.png"",""images/Red_Circle.png"",""images/Red_Circle.png"",""images/Red_Circle.png""]","true","[[22,53],[11,177],[114,249],[227,196],[238,72],[135,0]]","true",""
"visual-search-circle","99","2.2.0","443213","78676","visual_search_trial","1617","","j","","","","","","","","","","null","red_blue_mix","4","[""images/Blue_Triangle.png"",""images/Blue_Triangle.png"",""images/Red_Circle.png"",""images/Red_Circle.png"",""images/Red_Circle.png"",""images/Red_Circle.png""]","true","[[6,165],[101,247],[219,207],[243,84],[148,2],[30,42]]","false",""
"visual-search-circle","100","2.2.0","445532","78676","visual_search_trial","812","","f","","","","","","","","","","null","blue_triangle","4","[""images/Red_Triangle.png"",""images/Blue_Triangle.png"",""images/Blue_Triangle.png"",""images/Blue_Triangle.png"",""images/Blue_Triangle.png"",""images/Blue_Triangle.png"",""images/Blue_Triangle.png"",""images/Blue_Triangle.png"",""images/Blue_Triangle.png""]","true","[[213,213],[249,135],[227,53],[157,4],[72,11],[11,72],[4,157],[53,227],[135,249]]","true",""
"visual-search-circle","101","2.2.0","448235","78676","visual_search_trial","1199","","j","","","","","","","","","","null","red_blue_mix","4","[""images/Blue_Triangle.png"",""images/Red_Circle.png"",""images/Blue_Triangle.png""]","true","[[1,142],[201,223],[171,9]]","false",""
"visual-search-circle","102","2.2.0","452154","78676","visual_search_trial","2412","","j","","","","","","","","","","null","red_circle","4","[""images/Red_Circle.png"",""images/Red_Circle.png"",""images/Red_Circle.png"",""images/Red_Circle.png"",""images/Red_Circle.png"",""images/Red_Circle.png"",""images/Red_Circle.png"",""images/Red_Circle.png"",""images/Red_Circle.png""]","true","[[249,140],[229,56],[161,5],[76,9],[13,68],[3,153],[49,224],[131,249],[210,216]]","false",""
"visual-search-circle","103","2.2.0","456653","78676","visual_search_trial","2992","","j","","","","","","","","","","null","blue_triangle","4","[""images/Blue_Triangle.png"",""images/Blue_Triangle.png"",""images/Blue_Triangle.png"",""images/Blue_Triangle.png"",""images/Blue_Triangle.png"",""images/Blue_Triangle.png"",""images/Blue_Triangle.png"",""images/Blue_Triangle.png"",""images/Blue_Triangle.png""]","true","[[90,4],[21,55],[0,138],[38,214],[116,249],[198,226],[246,155],[237,70],[175,10]]","false",""
"visual-search-circle","104","2.2.0","458980","78676","visual_search_trial","823","","f","","","","","","","","","","null","red_circle","4","[""images/Red_Triangle.png"",""images/Red_Circle.png"",""images/Red_Circle.png""]","true","[[248,105],[46,27],[80,241]]","true",""
"visual-search-circle","105","2.2.0","461136","78676","visual_search_trial","653","","f","","","","","","","","","","null","blue_triangle","4","[""images/Red_Triangle.png"",""images/Blue_Triangle.png"",""images/Blue_Triangle.png""]","true","[[236,68],[20,56],[118,249]]","true",""
"visual-search-circle","106","2.2.0","463499","78676","visual_search_trial","855","","f","","","","","","","","","","null","red_blue_mix","4","[""images/Red_Triangle.png"",""images/Blue_Triangle.png"",""images/Blue_Triangle.png"",""images/Red_Circle.png"",""images/Red_Circle.png"",""images/Red_Circle.png"",""images/Red_Circle.png"",""images/Red_Circle.png"",""images/Blue_Triangle.png""]","true","[[249,131],[224,49],[153,3],[68,13],[9,76],[5,161],[56,229],[140,249],[216,210]]","true",""
"visual-search-circle","107","2.2.0","465809","78676","visual_search_trial","806","","f","","","","","","","","","","null","blue_triangle","5","[""images/Red_Triangle.png"",""images/Blue_Triangle.png"",""images/Blue_Triangle.png""]","true","[[51,226],[249,138],[74,10]]","true",""
"visual-search-circle","108","2.2.0","468193","78676","visual_search_trial","877","","f","","","","","","","","","","null","red_blue_mix","5","[""images/Red_Triangle.png"",""images/Blue_Circle.png"",""images/Blue_Circle.png"",""images/Blue_Circle.png"",""images/Red_Circle.png"",""images/Blue_Circle.png"",""images/Blue_Circle.png"",""images/Red_Circle.png"",""images/Blue_Triangle.png""]","true","[[118,249],[200,224],[246,153],[236,68],[173,9],[88,5],[20,56],[0,140],[39,216]]","true",""
"visual-search-circle","109","2.2.0","470628","78676","visual_search_trial","931","","j","","","","","","","","","","null","blue_triangle","5","[""images/Blue_Triangle.png"",""images/Blue_Triangle.png"",""images/Blue_Triangle.png""]","true","[[169,241],[203,27],[1,105]]","false",""
"visual-search-circle","110","2.2.0","472908","78676","visual_search_trial","775","","j","","","","","","","","","","null","red_circle","5","[""images/Red_Circle.png"",""images/Red_Circle.png"",""images/Red_Circle.png"",""images/Red_Circle.png"",""images/Red_Circle.png"",""images/Red_Circle.png""]","true","[[246,155],[211,35],[90,4],[3,94],[38,214],[159,245]]","false",""
"visual-search-circle","111","2.2.0","475305","78676","visual_search_trial","892","","j","","","","","","","","","","null","blue_triangle","5","[""images/Blue_Triangle.png"",""images/Blue_Triangle.png"",""images/Blue_Triangle.png"",""images/Blue_Triangle.png"",""images/Blue_Triangle.png"",""images/Blue_Triangle.png""]","true","[[163,243],[247,150],[208,32],[86,6],[2,99],[41,217]]","false",""
"visual-search-circle","112","2.2.0","478075","78676","visual_search_trial","1265","","j","","","","","","","","","","null","red_blue_mix","5","[""images/Blue_Triangle.png"",""images/Blue_Triangle.png"",""images/Blue_Circle.png""]","true","[[99,247],[243,86],[32,41]]","false",""
"visual-search-circle","113","2.2.0","480475","78676","visual_search_trial","894","","f","","","","","","","","","","null","red_circle","5","[""images/Red_Triangle.png"",""images/Red_Circle.png"",""images/Red_Circle.png"",""images/Red_Circle.png"",""images/Red_Circle.png"",""images/Red_Circle.png""]","true","[[72,11],[0,114],[53,227],[177,238],[249,135],[196,22]]","true",""
"visual-search-circle","114","2.2.0","482849","78676","visual_search_trial","871","","j","","","","","","","","","","null","blue_triangle","5","[""images/Blue_Triangle.png"",""images/Blue_Triangle.png"",""images/Blue_Triangle.png"",""images/Blue_Triangle.png"",""images/Blue_Triangle.png"",""images/Blue_Triangle.png"",""images/Blue_Triangle.png"",""images/Blue_Triangle.png"",""images/Blue_Triangle.png""]","true","[[233,187],[248,103],[205,29],[125,0],[44,29],[1,103],[16,187],[82,242],[167,242]]","false",""
"visual-search-circle","115","2.2.0","485200","78676","visual_search_trial","847","","f","","","","","","","","","","null","red_circle","5","[""images/Red_Triangle.png"",""images/Red_Circle.png"",""images/Red_Circle.png"",""images/Red_Circle.png"",""images/Red_Circle.png"",""images/Red_Circle.png"",""images/Red_Circle.png"",""images/Red_Circle.png"",""images/Red_Circle.png""]","true","[[101,2],[27,46],[0,127],[30,207],[105,248],[189,232],[243,165],[241,80],[185,15]]","true",""
"visual-search-circle","116","2.2.0","487477","78676","visual_search_trial","771","","f","","","","","","","","","","null","blue_triangle","5","[""images/Red_Triangle.png"",""images/Blue_Triangle.png"",""images/Blue_Triangle.png"",""images/Blue_Triangle.png"",""images/Blue_Triangle.png"",""images/Blue_Triangle.png"",""images/Blue_Triangle.png"",""images/Blue_Triangle.png"",""images/Blue_Triangle.png""]","true","[[18,58],[1,142],[41,217],[120,249],[201,223],[247,150],[235,66],[171,9],[86,6]]","true",""
"visual-search-circle","117","2.2.0","489508","78676","visual_search_trial","526","","f","","","","","","","","","","null","red_blue_mix","5","[""images/Red_Triangle.png"",""images/Blue_Circle.png"",""images/Blue_Triangle.png"",""images/Blue_Circle.png"",""images/Blue_Circle.png"",""images/Blue_Circle.png""]","true","[[74,10],[0,111],[51,226],[175,239],[249,138],[198,23]]","true",""
"visual-search-circle","118","2.2.0","491708","78676","visual_search_trial","696","","j","","","","","","","","","","null","red_circle","5","[""images/Red_Circle.png"",""images/Red_Circle.png"",""images/Red_Circle.png""]","true","[[249,135],[72,11],[53,227]]","false",""
"visual-search-circle","119","2.2.0","493858","78676","visual_search_trial","644","","f","","","","","","","","","","null","blue_triangle","5","[""images/Red_Triangle.png"",""images/Blue_Triangle.png"",""images/Blue_Triangle.png"",""images/Blue_Triangle.png"",""images/Blue_Triangle.png"",""images/Blue_Triangle.png""]","true","[[237,70],[133,0],[21,55],[12,179],[116,249],[228,194]]","true",""
"visual-search-circle","120","2.2.0","496858","78676","visual_search_trial","1493","","j","","","","","","","","","","null","red_blue_mix","5","[""images/Blue_Triangle.png"",""images/Blue_Circle.png"",""images/Red_Circle.png"",""images/Blue_Circle.png"",""images/Blue_Circle.png"",""images/Blue_Triangle.png"",""images/Red_Circle.png"",""images/Blue_Triangle.png"",""images/Blue_Circle.png""]","true","[[223,48],[150,2],[66,14],[9,78],[6,163],[58,231],[142,248],[217,208],[249,129]]","false",""
"visual-search-circle","121","2.2.0","499047","78676","visual_search_trial","683","","j","","","","","","","","","","null","red_circle","5","[""images/Red_Circle.png"",""images/Red_Circle.png"",""images/Red_Circle.png"",""images/Red_Circle.png"",""images/Red_Circle.png"",""images/Red_Circle.png"",""images/Red_Circle.png"",""images/Red_Circle.png"",""images/Red_Circle.png""]","true","[[138,0],[55,21],[4,90],[10,175],[70,237],[155,246],[226,198],[249,116],[214,38]]","false",""
"visual-search-circle","122","2.2.0","501296","78676","visual_search_trial","744","","j","","","","","","","","","","null","red_blue_mix","5","[""images/Blue_Circle.png"",""images/Red_Circle.png"",""images/Blue_Triangle.png"",""images/Blue_Triangle.png"",""images/Blue_Triangle.png"",""images/Red_Circle.png""]","true","[[0,140],[76,240],[200,224],[249,109],[173,9],[49,25]]","false",""
"visual-search-circle","123","2.2.0","503447","78676","visual_search_trial","646","","f","","","","","","","","","","null","red_circle","5","[""images/Red_Triangle.png"",""images/Red_Circle.png"",""images/Red_Circle.png""]","true","[[232,189],[127,0],[15,185]]","true",""
"visual-search-circle","124","2.2.0","505715","78676","visual_search_trial","765","","f","","","","","","","","","","null","red_blue_mix","5","[""images/Red_Triangle.png"",""images/Red_Circle.png"",""images/Blue_Triangle.png""]","true","[[223,201],[142,1],[9,171]]","true",""
"html-keyboard-response","125","2.1.0","538474","78676","break","32757","<p>Great job so far! Please rest for a few seconds before continuing.</p>
                 <p>Press the <strong>W</strong> key on your keyboard to continue.</p>","w","","","","","","","","","","","","","","","","","W"
"visual-search-circle","126","2.2.0","540903","78676","visual_search_trial","924","","f","","","","","","","","","","null","blue_triangle","6","[""images/Red_Triangle.png"",""images/Blue_Triangle.png"",""images/Blue_Triangle.png"",""images/Blue_Triangle.png"",""images/Blue_Triangle.png"",""images/Blue_Triangle.png""]","true","[[120,249],[231,191],[235,66],[129,0],[18,58],[14,183]]","true",""
"visual-search-circle","127","2.2.0","543041","78676","visual_search_trial","633","","j","","","","","","","","","","null","red_circle","6","[""images/Red_Circle.png"",""images/Red_Circle.png"",""images/Red_Circle.png""]","true","[[5,161],[216,210],[153,3]]","false",""
"visual-search-circle","128","2.2.0","545378","78676","visual_search_trial","832","","j","","","","","","","","","","null","blue_triangle","6","[""images/Blue_Triangle.png"",""images/Blue_Triangle.png"",""images/Blue_Triangle.png""]","true","[[72,11],[53,227],[249,135]]","false",""
"visual-search-circle","129","2.2.0","547610","78676","visual_search_trial","729","","f","","","","","","","","","","null","red_blue_mix","6","[""images/Red_Triangle.png"",""images/Red_Circle.png"",""images/Blue_Triangle.png""]","true","[[1,105],[169,241],[203,27]]","true",""
"visual-search-circle","130","2.2.0","549792","78676","visual_search_trial","675","","j","","","","","","","","","","null","red_circle","6","[""images/Red_Circle.png"",""images/Red_Circle.png"",""images/Red_Circle.png"",""images/Red_Circle.png"",""images/Red_Circle.png"",""images/Red_Circle.png"",""images/Red_Circle.png"",""images/Red_Circle.png"",""images/Red_Circle.png""]","true","[[210,33],[131,0],[49,25],[3,96],[13,181],[76,240],[161,244],[229,193],[249,109]]","false",""
"visual-search-circle","131","2.2.0","552108","78676","visual_search_trial","809","","j","","","","","","","","","","null","blue_triangle","6","[""images/Blue_Triangle.png"",""images/Blue_Triangle.png"",""images/Blue_Triangle.png"",""images/Blue_Triangle.png"",""images/Blue_Triangle.png"",""images/Blue_Triangle.png"",""images/Blue_Triangle.png"",""images/Blue_Triangle.png"",""images/Blue_Triangle.png""]","true","[[249,114],[213,36],[135,0],[53,22],[4,92],[11,177],[72,238],[157,245],[227,196]]","false",""
"visual-search-circle","132","2.2.0","554542","78676","visual_search_trial","927","","j","","","","","","","","","","null","red_blue_mix","6","[""images/Red_Circle.png"",""images/Red_Circle.png"",""images/Blue_Circle.png"",""images/Red_Circle.png"",""images/Blue_Triangle.png"",""images/Blue_Circle.png"",""images/Blue_Triangle.png"",""images/Blue_Circle.png"",""images/Blue_Circle.png""]","true","[[2,99],[14,183],[78,240],[163,243],[231,191],[248,107],[208,32],[129,0],[48,26]]","false",""
"visual-search-circle","133","2.2.0","556691","78676","visual_search_trial","643","","f","","","","","","","","","","null","red_circle","6","[""images/Red_Triangle.png"",""images/Red_Circle.png"",""images/Red_Circle.png"",""images/Red_Circle.png"",""images/Red_Circle.png"",""images/Red_Circle.png"",""images/Red_Circle.png"",""images/Red_Circle.png"",""images/Red_Circle.png""]","true","[[4,157],[53,227],[135,249],[213,213],[249,135],[227,53],[157,4],[72,11],[11,72]]","true",""
"visual-search-circle","134","2.2.0","558883","78676","visual_search_trial","685","","f","","","","","","","","","","null","red_blue_mix","6","[""images/Red_Triangle.png"",""images/Blue_Circle.png"",""images/Blue_Circle.png"",""images/Blue_Triangle.png"",""images/Blue_Triangle.png"",""images/Red_Circle.png"",""images/Blue_Triangle.png"",""images/Blue_Triangle.png"",""images/Blue_Circle.png""]","true","[[92,245],[177,238],[238,177],[245,92],[196,22],[114,0],[36,36],[0,114],[22,196]]","true",""
"visual-search-circle","135","2.2.0","560841","78676","visual_search_trial","454","","j","","","","","","","","","","null","blue_triangle","6","[""images/Blue_Triangle.png"",""images/Blue_Triangle.png"",""images/Blue_Triangle.png"",""images/Blue_Triangle.png"",""images/Blue_Triangle.png"",""images/Blue_Triangle.png""]","true","[[214,38],[94,3],[4,90],[35,211],[155,246],[245,159]]","false",""
"visual-search-circle","136","2.2.0","562945","78676","visual_search_trial","598","","j","","","","","","","","","","null","red_circle","6","[""images/Red_Circle.png"",""images/Red_Circle.png"",""images/Red_Circle.png"",""images/Red_Circle.png"",""images/Red_Circle.png"",""images/Red_Circle.png""]","true","[[120,249],[231,191],[235,66],[129,0],[18,58],[14,183]]","false",""
"visual-search-circle","137","2.2.0","564982","78676","visual_search_trial","533","","f","","","","","","","","","","null","blue_triangle","6","[""images/Red_Triangle.png"",""images/Blue_Triangle.png"",""images/Blue_Triangle.png""]","true","[[246,155],[90,4],[38,214]]","true",""
"visual-search-circle","138","2.2.0","567042","78676","visual_search_trial","556","","j","","","","","","","","","","null","red_blue_mix","6","[""images/Blue_Triangle.png"",""images/Blue_Triangle.png"",""images/Red_Circle.png""]","true","[[229,193],[131,0],[13,181]]","false",""
"visual-search-circle","139","2.2.0","569061","78676","visual_search_trial","514","","f","","","","","","","","","","null","red_circle","6","[""images/Red_Triangle.png"",""images/Red_Circle.png"",""images/Red_Circle.png"",""images/Red_Circle.png"",""images/Red_Circle.png"",""images/Red_Circle.png""]","true","[[51,23],[0,138],[74,239],[198,226],[249,111],[175,10]]","true",""
"visual-search-circle","140","2.2.0","571215","78676","visual_search_trial","648","","f","","","","","","","","","","null","red_blue_mix","6","[""images/Red_Triangle.png"",""images/Blue_Circle.png"",""images/Red_Circle.png"",""images/Blue_Triangle.png"",""images/Blue_Triangle.png"",""images/Blue_Triangle.png""]","true","[[51,226],[175,239],[249,138],[198,23],[74,10],[0,111]]","true",""
"visual-search-circle","141","2.2.0","573237","78676","visual_search_trial","517","","f","","","","","","","","","","null","red_circle","6","[""images/Red_Triangle.png"",""images/Red_Circle.png"",""images/Red_Circle.png""]","true","[[171,240],[201,26],[1,107]]","true",""
"visual-search-circle","142","2.2.0","575376","78676","visual_search_trial","634","","j","","","","","","","","","","null","red_blue_mix","6","[""images/Red_Circle.png"",""images/Red_Circle.png"",""images/Blue_Triangle.png"",""images/Red_Circle.png"",""images/Blue_Triangle.png"",""images/Red_Circle.png""]","true","[[146,248],[242,167],[220,44],[103,1],[7,82],[29,205]]","false",""
"visual-search-circle","143","2.2.0","577483","78676","visual_search_trial","600","","f","","","","","","","","","","null","blue_triangle","6","[""images/Red_Triangle.png"",""images/Blue_Triangle.png"",""images/Blue_Triangle.png"",""images/Blue_Triangle.png"",""images/Blue_Triangle.png"",""images/Blue_Triangle.png"",""images/Blue_Triangle.png"",""images/Blue_Triangle.png"",""images/Blue_Triangle.png""]","true","[[245,90],[194,21],[111,0],[35,38],[0,116],[23,198],[94,246],[179,237],[239,175]]","true",""
"visual-search-circle","144","2.2.0","579461","78676","visual_search_trial","474","","j","","","","","","","","","","null","red_circle","7","[""images/Red_Circle.png"",""images/Red_Circle.png"",""images/Red_Circle.png""]","true","[[94,246],[245,90],[35,38]]","false",""
"visual-search-circle","145","2.2.0","581597","78676","visual_search_trial","629","","j","","","","","","","","","","null","red_blue_mix","7","[""images/Red_Circle.png"",""images/Blue_Circle.png"",""images/Red_Circle.png"",""images/Red_Circle.png"",""images/Red_Circle.png"",""images/Blue_Triangle.png"",""images/Blue_Circle.png"",""images/Blue_Circle.png"",""images/Red_Circle.png""]","true","[[103,1],[29,44],[0,125],[29,205],[103,248],[187,233],[242,167],[242,82],[187,16]]","false",""
"visual-search-circle","146","2.2.0","583571","78676","visual_search_trial","468","","j","","","","","","","","","","null","red_circle","7","[""images/Red_Circle.png"",""images/Red_Circle.png"",""images/Red_Circle.png"",""images/Red_Circle.png"",""images/Red_Circle.png"",""images/Red_Circle.png"",""images/Red_Circle.png"",""images/Red_Circle.png"",""images/Red_Circle.png""]","true","[[18,58],[1,142],[41,217],[120,249],[201,223],[247,150],[235,66],[171,9],[86,6]]","false",""
"visual-search-circle","147","2.2.0","585601","78676","visual_search_trial","527","","j","","","","","","","","","","null","blue_triangle","7","[""images/Blue_Triangle.png"",""images/Blue_Triangle.png"",""images/Blue_Triangle.png""]","true","[[140,249],[224,49],[9,76]]","false",""
"visual-search-circle","148","2.2.0","587725","78676","visual_search_trial","621","","f","","","","","","","","","","null","red_circle","7","[""images/Red_Triangle.png"",""images/Red_Circle.png"",""images/Red_Circle.png""]","true","[[135,0],[11,177],[227,196]]","true",""
"visual-search-circle","149","2.2.0","589858","78676","visual_search_trial","628","","f","","","","","","","","","","null","red_blue_mix","7","[""images/Red_Triangle.png"",""images/Red_Circle.png"",""images/Red_Circle.png"",""images/Blue_Circle.png"",""images/Blue_Circle.png"",""images/Blue_Triangle.png""]","true","[[9,78],[26,201],[142,248],[240,171],[223,48],[107,1]]","true",""
"visual-search-circle","150","2.2.0","591786","78676","visual_search_trial","424","","f","","","","","","","","","","null","blue_triangle","7","[""images/Red_Triangle.png"",""images/Blue_Triangle.png"",""images/Blue_Triangle.png""]","true","[[7,82],[146,248],[220,44]]","true",""
"visual-search-circle","151","2.2.0","593862","78676","visual_search_trial","572","","j","","","","","","","","","","null","red_blue_mix","7","[""images/Blue_Circle.png"",""images/Red_Circle.png"",""images/Red_Circle.png""]","true","[[35,38],[94,246],[245,90]]","false",""
"visual-search-circle","152","2.2.0","595947","78676","visual_search_trial","580","","f","","","","","","","","","","null","blue_triangle","7","[""images/Red_Triangle.png"",""images/Blue_Triangle.png"",""images/Blue_Triangle.png"",""images/Blue_Triangle.png"",""images/Blue_Triangle.png"",""images/Blue_Triangle.png""]","true","[[201,223],[248,107],[171,9],[48,26],[1,142],[78,240]]","true",""
"visual-search-circle","153","2.2.0","597992","78676","visual_search_trial","538","","f","","","","","","","","","","null","red_circle","7","[""images/Red_Triangle.png"",""images/Red_Circle.png"",""images/Red_Circle.png"",""images/Red_Circle.png"",""images/Red_Circle.png"",""images/Red_Circle.png"",""images/Red_Circle.png"",""images/Red_Circle.png"",""images/Red_Circle.png""]","true","[[6,165],[60,232],[144,248],[219,207],[249,127],[222,46],[148,2],[64,15],[8,80]]","true",""
"visual-search-circle","154","2.2.0","600021","78676","visual_search_trial","524","","j","","","","","","","","","","null","blue_triangle","7","[""images/Blue_Triangle.png"",""images/Blue_Triangle.png"",""images/Blue_Triangle.png"",""images/Blue_Triangle.png"",""images/Blue_Triangle.png"",""images/Blue_Triangle.png"",""images/Blue_Triangle.png"",""images/Blue_Triangle.png"",""images/Blue_Triangle.png""]","true","[[68,13],[9,76],[5,161],[56,229],[140,249],[216,210],[249,131],[224,49],[153,3]]","false",""
"visual-search-circle","155","2.2.0","602541","78676","visual_search_trial","1013","","f","","","","","","","","","","null","red_blue_mix","7","[""images/Red_Triangle.png"",""images/Blue_Triangle.png"",""images/Red_Circle.png"",""images/Blue_Triangle.png"",""images/Blue_Circle.png"",""images/Blue_Circle.png"",""images/Blue_Circle.png"",""images/Red_Circle.png"",""images/Red_Circle.png""]","true","[[15,185],[80,241],[165,243],[232,189],[248,105],[207,30],[127,0],[46,27],[2,101]]","true",""
"visual-search-circle","156","2.2.0","604512","78676","visual_search_trial","466","","j","","","","","","","","","","null","red_circle","7","[""images/Red_Circle.png"",""images/Red_Circle.png"",""images/Red_Circle.png"",""images/Red_Circle.png"",""images/Red_Circle.png"",""images/Red_Circle.png""]","true","[[234,64],[127,0],[17,60],[15,185],[122,249],[232,189]]","false",""
"visual-search-circle","157","2.2.0","606617","78676","visual_search_trial","601","","j","","","","","","","","","","null","red_blue_mix","7","[""images/Blue_Circle.png"",""images/Red_Circle.png"",""images/Blue_Triangle.png"",""images/Blue_Circle.png"",""images/Blue_Circle.png"",""images/Blue_Circle.png""]","true","[[131,0],[20,56],[13,181],[118,249],[229,193],[236,68]]","false",""
"visual-search-circle","158","2.2.0","608612","78676","visual_search_trial","489","","j","","","","","","","","","","null","blue_triangle","7","[""images/Blue_Triangle.png"",""images/Blue_Triangle.png"",""images/Blue_Triangle.png"",""images/Blue_Triangle.png"",""images/Blue_Triangle.png"",""images/Blue_Triangle.png""]","true","[[205,29],[82,7],[1,103],[44,220],[167,242],[248,146]]","false",""
"visual-search-circle","159","2.2.0","610801","78676","visual_search_trial","684","","f","","","","","","","","","","null","red_circle","7","[""images/Red_Triangle.png"",""images/Red_Circle.png"",""images/Red_Circle.png"",""images/Red_Circle.png"",""images/Red_Circle.png"",""images/Red_Circle.png""]","true","[[196,227],[249,114],[177,11],[53,22],[0,135],[72,238]]","true",""
"visual-search-circle","160","2.2.0","612825","78676","visual_search_trial","518","","f","","","","","","","","","","null","blue_triangle","7","[""images/Red_Triangle.png"",""images/Blue_Triangle.png"",""images/Blue_Triangle.png"",""images/Blue_Triangle.png"",""images/Blue_Triangle.png"",""images/Blue_Triangle.png"",""images/Blue_Triangle.png"",""images/Blue_Triangle.png"",""images/Blue_Triangle.png""]","true","[[3,96],[13,181],[76,240],[161,244],[229,193],[249,109],[210,33],[131,0],[49,25]]","true",""
"visual-search-circle","161","2.2.0","615048","78676","visual_search_trial","719","","f","","","","","","","","","","null","red_blue_mix","7","[""images/Red_Triangle.png"",""images/Blue_Triangle.png"",""images/Blue_Triangle.png""]","true","[[228,55],[12,70],[133,249]]","true",""
"html-keyboard-response","162","2.1.0","621835","78676","break","6786","<p>Great job so far! Please rest for a few seconds before continuing.</p>
                 <p>Press the <strong>L</strong> key on your keyboard to continue.</p>","l","","","","","","","","","","","","","","","","","L"
"visual-search-circle","163","2.2.0","625146","78676","visual_search_trial","1805","","f","","","","","","","","","","null","red_blue_mix","8","[""images/Red_Triangle.png"",""images/Red_Circle.png"",""images/Blue_Circle.png"",""images/Red_Circle.png"",""images/Blue_Circle.png"",""images/Blue_Triangle.png"",""images/Blue_Circle.png"",""images/Blue_Triangle.png"",""images/Blue_Circle.png""]","true","[[76,9],[13,68],[3,153],[49,224],[131,249],[210,216],[249,140],[229,56],[161,5]]","true",""
"visual-search-circle","164","2.2.0","627292","78676","visual_search_trial","642","","j","","","","","","","","","","null","red_circle","8","[""images/Red_Circle.png"",""images/Red_Circle.png"",""images/Red_Circle.png""]","true","[[68,13],[56,229],[249,131]]","false",""
"visual-search-circle","165","2.2.0","633151","78676","visual_search_trial","4351","","j","","","","","","","","","","null","red_blue_mix","8","[""images/Blue_Circle.png"",""images/Red_Circle.png"",""images/Blue_Circle.png"",""images/Blue_Triangle.png"",""images/Red_Circle.png"",""images/Red_Circle.png"",""images/Blue_Triangle.png"",""images/Blue_Circle.png"",""images/Blue_Triangle.png""]","true","[[5,161],[56,229],[140,249],[216,210],[249,131],[224,49],[153,3],[68,13],[9,76]]","false",""
"visual-search-circle","166","2.2.0","635467","78676","visual_search_trial","810","","f","","","","","","","","","","null","red_circle","8","[""images/Red_Triangle.png"",""images/Red_Circle.png"",""images/Red_Circle.png"",""images/Red_Circle.png"",""images/Red_Circle.png"",""images/Red_Circle.png"",""images/Red_Circle.png"",""images/Red_Circle.png"",""images/Red_Circle.png""]","true","[[120,249],[201,223],[247,150],[235,66],[171,9],[86,6],[18,58],[1,142],[41,217]]","true",""
"visual-search-circle","167","2.2.0","637421","78676","visual_search_trial","449","","j","","","","","","","","","","null","blue_triangle","8","[""images/Blue_Triangle.png"",""images/Blue_Triangle.png"",""images/Blue_Triangle.png"",""images/Blue_Triangle.png"",""images/Blue_Triangle.png"",""images/Blue_Triangle.png""]","true","[[146,1],[29,44],[7,167],[103,248],[220,205],[242,82]]","false",""
"visual-search-circle","168","2.2.0","639661","78676","visual_search_trial","736","","f","","","","","","","","","","null","red_circle","8","[""images/Red_Triangle.png"",""images/Red_Circle.png"",""images/Red_Circle.png""]","true","[[231,58],[14,66],[129,249]]","true",""
"visual-search-circle","169","2.2.0","641957","78676","visual_search_trial","792","","f","","","","","","","","","","null","blue_triangle","8","[""images/Red_Triangle.png"",""images/Blue_Triangle.png"",""images/Blue_Triangle.png"",""images/Blue_Triangle.png"",""images/Blue_Triangle.png"",""images/Blue_Triangle.png""]","true","[[39,216],[161,244],[246,153],[210,33],[88,5],[3,96]]","true",""
"visual-search-circle","170","2.2.0","644341","78676","visual_search_trial","879","","f","","","","","","","","","","null","red_blue_mix","8","[""images/Red_Triangle.png"",""images/Blue_Triangle.png"",""images/Blue_Triangle.png"",""images/Red_Circle.png"",""images/Red_Circle.png"",""images/Red_Circle.png""]","true","[[0,118],[56,229],[181,236],[249,131],[193,20],[68,13]]","true",""
"visual-search-circle","171","2.2.0","646354","78676","visual_search_trial","508","","f","","","","","","","","","","null","blue_triangle","8","[""images/Red_Triangle.png"",""images/Blue_Triangle.png"",""images/Blue_Triangle.png""]","true","[[249,120],[58,18],[66,235]]","true",""
"visual-search-circle","172","2.2.0","648521","78676","visual_search_trial","665","","j","","","","","","","","","","null","red_blue_mix","8","[""images/Red_Circle.png"",""images/Blue_Circle.png"",""images/Blue_Circle.png""]","true","[[29,205],[242,167],[103,1]]","false",""
"visual-search-circle","173","2.2.0","650514","78676","visual_search_trial","488","","j","","","","","","","","","","null","red_circle","8","[""images/Red_Circle.png"",""images/Red_Circle.png"",""images/Red_Circle.png"",""images/Red_Circle.png"",""images/Red_Circle.png"",""images/Red_Circle.png""]","true","[[0,109],[49,224],[173,240],[249,140],[200,25],[76,9]]","false",""
"visual-search-circle","174","2.2.0","652484","78676","visual_search_trial","467","","f","","","","","","","","","","null","red_blue_mix","8","[""images/Red_Triangle.png"",""images/Blue_Circle.png"",""images/Red_Circle.png""]","true","[[16,187],[233,187],[125,0]]","true",""
"visual-search-circle","175","2.2.0","654497","78676","visual_search_trial","506","","f","","","","","","","","","","null","blue_triangle","8","[""images/Red_Triangle.png"",""images/Blue_Triangle.png"",""images/Blue_Triangle.png"",""images/Blue_Triangle.png"",""images/Blue_Triangle.png"",""images/Blue_Triangle.png"",""images/Blue_Triangle.png"",""images/Blue_Triangle.png"",""images/Blue_Triangle.png""]","true","[[241,80],[185,15],[101,2],[27,46],[0,127],[30,207],[105,248],[189,232],[243,165]]","true",""
"visual-search-circle","176","2.2.0","656485","78676","visual_search_trial","483","","f","","","","","","","","","","null","red_circle","8","[""images/Red_Triangle.png"",""images/Red_Circle.png"",""images/Red_Circle.png"",""images/Red_Circle.png"",""images/Red_Circle.png"",""images/Red_Circle.png""]","true","[[88,5],[3,96],[39,216],[161,244],[246,153],[210,33]]","true",""
"visual-search-circle","177","2.2.0","658491","78676","visual_search_trial","499","","j","","","","","","","","","","null","blue_triangle","8","[""images/Blue_Triangle.png"",""images/Blue_Triangle.png"",""images/Blue_Triangle.png"",""images/Blue_Triangle.png"",""images/Blue_Triangle.png"",""images/Blue_Triangle.png"",""images/Blue_Triangle.png"",""images/Blue_Triangle.png"",""images/Blue_Triangle.png""]","true","[[49,224],[131,249],[210,216],[249,140],[229,56],[161,5],[76,9],[13,68],[3,153]]","false",""
"visual-search-circle","178","2.2.0","660474","78676","visual_search_trial","476","","j","","","","","","","","","","null","red_circle","8","[""images/Red_Circle.png"",""images/Red_Circle.png"",""images/Red_Circle.png"",""images/Red_Circle.png"",""images/Red_Circle.png"",""images/Red_Circle.png"",""images/Red_Circle.png"",""images/Red_Circle.png"",""images/Red_Circle.png""]","true","[[245,92],[196,22],[114,0],[36,36],[0,114],[22,196],[92,245],[177,238],[238,177]]","false",""
"visual-search-circle","179","2.2.0","662547","78676","visual_search_trial","569","","j","","","","","","","","","","null","blue_triangle","8","[""images/Blue_Triangle.png"",""images/Blue_Triangle.png"",""images/Blue_Triangle.png""]","true","[[227,196],[135,0],[11,177]]","false",""
"visual-search-circle","180","2.2.0","665107","78676","visual_search_trial","1056","","j","","","","","","","","","","null","red_blue_mix","8","[""images/Red_Circle.png"",""images/Red_Circle.png"",""images/Blue_Triangle.png"",""images/Red_Circle.png"",""images/Blue_Circle.png"",""images/Blue_Triangle.png""]","true","[[227,53],[114,0],[11,72],[22,196],[135,249],[238,177]]","false",""
"visual-search-circle","181","2.2.0","667091","78676","visual_search_trial","479","","j","","","","","","","","","","null","red_circle","9","[""images/Red_Circle.png"",""images/Red_Circle.png"",""images/Red_Circle.png"",""images/Red_Circle.png"",""images/Red_Circle.png"",""images/Red_Circle.png""]","true","[[120,249],[231,191],[235,66],[129,0],[18,58],[14,183]]","false",""
"visual-search-circle","182","2.2.0","669045","78676","visual_search_trial","449","","f","","","","","","","","","","null","red_blue_mix","9","[""images/Red_Triangle.png"",""images/Blue_Circle.png"",""images/Blue_Circle.png""]","true","[[165,6],[2,148],[207,219]]","true",""
"visual-search-circle","183","2.2.0","671020","78676","visual_search_trial","468","","f","","","","","","","","","","null","red_circle","9","[""images/Red_Triangle.png"",""images/Red_Circle.png"",""images/Red_Circle.png"",""images/Red_Circle.png"",""images/Red_Circle.png"",""images/Red_Circle.png"",""images/Red_Circle.png"",""images/Red_Circle.png"",""images/Red_Circle.png""]","true","[[58,18],[6,86],[9,171],[66,235],[150,247],[223,201],[249,120],[217,41],[142,1]]","true",""
"visual-search-circle","184","2.2.0","673676","78676","visual_search_trial","1152","","f","","","","","","","","","","null","blue_triangle","9","[""images/Red_Triangle.png"",""images/Blue_Triangle.png"",""images/Blue_Triangle.png"",""images/Blue_Triangle.png"",""images/Blue_Triangle.png"",""images/Blue_Triangle.png""]","true","[[36,36],[4,157],[92,245],[213,213],[245,92],[157,4]]","true",""
"visual-search-circle","185","2.2.0","675807","78676","visual_search_trial","627","","j","","","","","","","","","","null","red_circle","9","[""images/Red_Circle.png"",""images/Red_Circle.png"",""images/Red_Circle.png""]","true","[[240,78],[26,48],[107,248]]","false",""
"visual-search-circle","186","2.2.0","677759","78676","visual_search_trial","448","","f","","","","","","","","","","null","blue_triangle","9","[""images/Red_Triangle.png"",""images/Blue_Triangle.png"",""images/Blue_Triangle.png""]","true","[[53,22],[72,238],[249,114]]","true",""
"visual-search-circle","187","2.2.0","680031","78676","visual_search_trial","768","","j","","","","","","","","","","null","red_blue_mix","9","[""images/Red_Circle.png"",""images/Blue_Triangle.png"",""images/Red_Circle.png"",""images/Blue_Circle.png"",""images/Red_Circle.png"",""images/Red_Circle.png""]","true","[[131,249],[236,181],[229,56],[118,0],[13,68],[20,193]]","false",""
"visual-search-circle","188","2.2.0","683841","78676","visual_search_trial","2303","","f","","","","","","","","","","null","blue_triangle","9","[""images/Red_Triangle.png"",""images/Blue_Triangle.png"",""images/Blue_Triangle.png"",""images/Blue_Triangle.png"",""images/Blue_Triangle.png"",""images/Blue_Triangle.png"",""images/Blue_Triangle.png"",""images/Blue_Triangle.png"",""images/Blue_Triangle.png""]","true","[[241,169],[243,84],[189,17],[105,1],[30,42],[0,122],[27,203],[101,247],[185,234]]","true",""
"visual-search-circle","189","2.2.0","686221","78676","visual_search_trial","873","","f","","","","","","","","","","null","red_blue_mix","9","[""images/Red_Triangle.png"",""images/Blue_Triangle.png"",""images/Blue_Circle.png"",""images/Blue_Circle.png"",""images/Blue_Circle.png"",""images/Blue_Triangle.png"",""images/Red_Circle.png"",""images/Blue_Triangle.png"",""images/Blue_Triangle.png""]","true","[[109,0],[33,39],[0,118],[25,200],[96,246],[181,236],[240,173],[244,88],[193,20]]","true",""
"visual-search-circle","190","2.2.0","688254","78676","visual_search_trial","526","","j","","","","","","","","","","null","red_circle","9","[""images/Red_Circle.png"",""images/Red_Circle.png"",""images/Red_Circle.png"",""images/Red_Circle.png"",""images/Red_Circle.png"",""images/Red_Circle.png"",""images/Red_Circle.png"",""images/Red_Circle.png"",""images/Red_Circle.png""]","true","[[60,17],[6,84],[8,169],[64,234],[148,247],[222,203],[249,122],[219,42],[144,1]]","false",""
"visual-search-circle","191","2.2.0","690329","78676","visual_search_trial","572","","j","","","","","","","","","","null","blue_triangle","9","[""images/Blue_Triangle.png"",""images/Blue_Triangle.png"",""images/Blue_Triangle.png""]","true","[[23,51],[111,249],[239,74]]","false",""
"visual-search-circle","192","2.2.0","692458","78676","visual_search_trial","624","","f","","","","","","","","","","null","red_circle","9","[""images/Red_Triangle.png"",""images/Red_Circle.png"",""images/Red_Circle.png""]","true","[[118,0],[20,193],[236,181]]","true",""
"visual-search-circle","193","2.2.0","694438","78676","visual_search_trial","476","","j","","","","","","","","","","null","blue_triangle","9","[""images/Blue_Triangle.png"",""images/Blue_Triangle.png"",""images/Blue_Triangle.png"",""images/Blue_Triangle.png"",""images/Blue_Triangle.png"",""images/Blue_Triangle.png""]","true","[[167,242],[248,146],[205,29],[82,7],[1,103],[44,220]]","false",""
"visual-search-circle","194","2.2.0","696545","78676","visual_search_trial","601","","j","","","","","","","","","","null","red_blue_mix","9","[""images/Blue_Circle.png"",""images/Blue_Triangle.png"",""images/Blue_Triangle.png"",""images/Blue_Triangle.png"",""images/Blue_Circle.png"",""images/Blue_Triangle.png"",""images/Blue_Triangle.png"",""images/Blue_Triangle.png"",""images/Blue_Circle.png""]","true","[[194,21],[111,0],[35,38],[0,116],[23,198],[94,246],[179,237],[239,175],[245,90]]","false",""
"visual-search-circle","195","2.2.0","698574","78676","visual_search_trial","525","","f","","","","","","","","","","null","red_circle","9","[""images/Red_Triangle.png"",""images/Red_Circle.png"",""images/Red_Circle.png"",""images/Red_Circle.png"",""images/Red_Circle.png"",""images/Red_Circle.png""]","true","[[228,55],[116,0],[12,70],[21,194],[133,249],[237,179]]","true",""
"visual-search-circle","196","2.2.0","700525","78676","visual_search_trial","447","","j","","","","","","","","","","null","red_blue_mix","9","[""images/Blue_Circle.png"",""images/Blue_Circle.png"",""images/Blue_Circle.png""]","true","[[245,157],[92,4],[36,213]]","false",""
"visual-search-circle","197","2.2.0","702524","78676","visual_search_trial","493","","j","","","","","","","","","","null","blue_triangle","9","[""images/Blue_Triangle.png"",""images/Blue_Triangle.png"",""images/Blue_Triangle.png"",""images/Blue_Triangle.png"",""images/Blue_Triangle.png"",""images/Blue_Triangle.png"",""images/Blue_Triangle.png"",""images/Blue_Triangle.png"",""images/Blue_Triangle.png""]","true","[[2,150],[48,223],[129,249],[208,217],[248,142],[231,58],[163,6],[78,9],[14,66]]","false",""
"visual-search-circle","198","2.2.0","704565","78676","visual_search_trial","535","","f","","","","","","","","","","null","red_blue_mix","9","[""images/Red_Triangle.png"",""images/Red_Circle.png"",""images/Blue_Circle.png"",""images/Red_Circle.png"",""images/Red_Circle.png"",""images/Blue_Circle.png""]","true","[[13,181],[118,249],[229,193],[236,68],[131,0],[20,56]]","true",""
"html-keyboard-response","199","2.1.0","728061","78676","break","23495","<p>Great job so far! Please rest for a few seconds before continuing.</p>
                 <p>Press the <strong>T</strong> key on your keyboard to continue.</p>","t","","","","","","","","","","","","","","","","","T"
"visual-search-circle","200","2.2.0","731674","78676","visual_search_trial","2107","","j","","","","","","","","","","null","red_blue_mix","10","[""images/Blue_Circle.png"",""images/Red_Circle.png"",""images/Blue_Triangle.png"",""images/Blue_Circle.png"",""images/Red_Circle.png"",""images/Blue_Triangle.png""]","true","[[74,10],[0,111],[51,226],[175,239],[249,138],[198,23]]","false",""
"visual-search-circle","201","2.2.0","734008","78676","visual_search_trial","826","","f","","","","","","","","","","null","red_circle","10","[""images/Red_Triangle.png"",""images/Red_Circle.png"",""images/Red_Circle.png"",""images/Red_Circle.png"",""images/Red_Circle.png"",""images/Red_Circle.png"",""images/Red_Circle.png"",""images/Red_Circle.png"",""images/Red_Circle.png""]","true","[[163,243],[231,191],[248,107],[208,32],[129,0],[48,26],[2,99],[14,183],[78,240]]","true",""
"visual-search-circle","202","2.2.0","736745","78676","visual_search_trial","1230","","f","","","","","","","","","","null","red_blue_mix","10","[""images/Red_Triangle.png"",""images/Blue_Circle.png"",""images/Red_Circle.png"",""images/Red_Circle.png"",""images/Blue_Triangle.png"",""images/Blue_Circle.png"",""images/Red_Circle.png"",""images/Red_Circle.png"",""images/Blue_Triangle.png""]","true","[[196,22],[114,0],[36,36],[0,114],[22,196],[92,245],[177,238],[238,177],[245,92]]","true",""
"visual-search-circle","203","2.2.0","738719","78676","visual_search_trial","468","","j","","","","","","","","","","null","blue_triangle","10","[""images/Blue_Triangle.png"",""images/Blue_Triangle.png"",""images/Blue_Triangle.png"",""images/Blue_Triangle.png"",""images/Blue_Triangle.png"",""images/Blue_Triangle.png""]","true","[[232,60],[122,0],[15,64],[17,189],[127,249],[234,185]]","false",""
"visual-search-circle","204","2.2.0","740708","78676","visual_search_trial","483","","j","","","","","","","","","","null","red_circle","10","[""images/Red_Circle.png"",""images/Red_Circle.png"",""images/Red_Circle.png"",""images/Red_Circle.png"",""images/Red_Circle.png"",""images/Red_Circle.png""]","true","[[23,51],[10,175],[111,249],[226,198],[239,74],[138,0]]","false",""
"visual-search-circle","205","2.2.0","742741","78676","visual_search_trial","529","","j","","","","","","","","","","null","blue_triangle","10","[""images/Blue_Triangle.png"",""images/Blue_Triangle.png"",""images/Blue_Triangle.png""]","true","[[9,76],[140,249],[224,49]]","false",""
"visual-search-circle","206","2.2.0","744805","78676","visual_search_trial","558","","f","","","","","","","","","","null","red_circle","10","[""images/Red_Triangle.png"",""images/Red_Circle.png"",""images/Red_Circle.png"",""images/Red_Circle.png"",""images/Red_Circle.png"",""images/Red_Circle.png""]","true","[[243,86],[150,2],[32,41],[6,163],[99,247],[217,208]]","true",""
"visual-search-circle","207","2.2.0","746802","78676","visual_search_trial","492","","f","","","","","","","","","","null","blue_triangle","10","[""images/Red_Triangle.png"",""images/Blue_Triangle.png"",""images/Blue_Triangle.png"",""images/Blue_Triangle.png"",""images/Blue_Triangle.png"",""images/Blue_Triangle.png""]","true","[[7,167],[103,248],[220,205],[242,82],[146,1],[29,44]]","true",""
"visual-search-circle","208","2.2.0","748736","78676","visual_search_trial","430","","f","","","","","","","","","","null","red_blue_mix","10","[""images/Red_Triangle.png"",""images/Blue_Circle.png"",""images/Red_Circle.png""]","true","[[0,122],[185,234],[189,17]]","true",""
"visual-search-circle","209","2.2.0","750718","78676","visual_search_trial","476","","j","","","","","","","","","","null","red_circle","10","[""images/Red_Circle.png"",""images/Red_Circle.png"",""images/Red_Circle.png"",""images/Red_Circle.png"",""images/Red_Circle.png"",""images/Red_Circle.png"",""images/Red_Circle.png"",""images/Red_Circle.png"",""images/Red_Circle.png""]","true","[[169,241],[234,185],[247,101],[203,27],[122,0],[42,30],[1,105],[17,189],[84,243]]","false",""
"visual-search-circle","210","2.2.0","752798","78676","visual_search_trial","576","","f","","","","","","","","","","null","blue_triangle","10","[""images/Red_Triangle.png"",""images/Blue_Triangle.png"",""images/Blue_Triangle.png""]","true","[[222,203],[144,1],[8,169]]","true",""
"visual-search-circle","211","2.2.0","754729","78676","visual_search_trial","427","","j","","","","","","","","","","null","red_blue_mix","10","[""images/Blue_Circle.png"",""images/Red_Circle.png"",""images/Blue_Circle.png""]","true","[[0,127],[189,232],[185,15]]","false",""
"visual-search-circle","212","2.2.0","756721","78676","visual_search_trial","485","","j","","","","","","","","","","null","blue_triangle","10","[""images/Blue_Triangle.png"",""images/Blue_Triangle.png"",""images/Blue_Triangle.png"",""images/Blue_Triangle.png"",""images/Blue_Triangle.png"",""images/Blue_Triangle.png"",""images/Blue_Triangle.png"",""images/Blue_Triangle.png"",""images/Blue_Triangle.png""]","true","[[210,216],[249,140],[229,56],[161,5],[76,9],[13,68],[3,153],[49,224],[131,249]]","false",""
"visual-search-circle","213","2.2.0","758684","78676","visual_search_trial","460","","j","","","","","","","","","","null","red_circle","10","[""images/Red_Triangle.png"",""images/Red_Circle.png"",""images/Red_Circle.png""]","false","[[243,84],[30,42],[101,247]]","true",""
"visual-search-circle","214","2.2.0","760887","78676","visual_search_trial","696","","f","","","","","","","","","","null","blue_triangle","10","[""images/Red_Triangle.png"",""images/Blue_Triangle.png"",""images/Blue_Triangle.png"",""images/Blue_Triangle.png"",""images/Blue_Triangle.png"",""images/Blue_Triangle.png"",""images/Blue_Triangle.png"",""images/Blue_Triangle.png"",""images/Blue_Triangle.png""]","true","[[219,42],[144,1],[60,17],[6,84],[8,169],[64,234],[148,247],[222,203],[249,122]]","true",""
"visual-search-circle","215","2.2.0","764079","78676","visual_search_trial","1688","","f","","","","","","","","","","null","red_blue_mix","10","[""images/Red_Triangle.png"",""images/Blue_Triangle.png"",""images/Blue_Triangle.png"",""images/Red_Circle.png"",""images/Red_Circle.png"",""images/Blue_Circle.png""]","true","[[0,120],[58,231],[183,235],[249,129],[191,18],[66,14]]","true",""
"visual-search-circle","216","2.2.0","766193","78676","visual_search_trial","610","","j","","","","","","","","","","null","red_circle","10","[""images/Red_Circle.png"",""images/Red_Circle.png"",""images/Red_Circle.png""]","true","[[1,103],[167,242],[205,29]]","false",""
"visual-search-circle","217","2.2.0","768585","78676","visual_search_trial","885","","j","","","","","","","","","","null","red_blue_mix","10","[""images/Red_Circle.png"",""images/Blue_Triangle.png"",""images/Blue_Circle.png"",""images/Blue_Circle.png"",""images/Blue_Circle.png"",""images/Blue_Triangle.png"",""images/Blue_Triangle.png"",""images/Red_Circle.png"",""images/Red_Circle.png""]","true","[[72,238],[157,245],[227,196],[249,114],[213,36],[135,0],[53,22],[4,92],[11,177]]","false",""
"visual-search-circle","218","2.2.0","770545","78676","visual_search_trial","456","","j","","","","","","","","","","null","red_circle","11","[""images/Red_Circle.png"",""images/Red_Circle.png"",""images/Red_Circle.png"",""images/Red_Circle.png"",""images/Red_Circle.png"",""images/Red_Circle.png""]","true","[[109,249],[224,200],[240,76],[140,0],[25,49],[9,173]]","false",""
"visual-search-circle","219","2.2.0","772582","78676","visual_search_trial","531","","f","","","","","","","","","","null","blue_triangle","11","[""images/Red_Triangle.png"",""images/Blue_Triangle.png"",""images/Blue_Triangle.png"",""images/Blue_Triangle.png"",""images/Blue_Triangle.png"",""images/Blue_Triangle.png"",""images/Blue_Triangle.png"",""images/Blue_Triangle.png"",""images/Blue_Triangle.png""]","true","[[246,153],[236,68],[173,9],[88,5],[20,56],[0,140],[39,216],[118,249],[200,224]]","true",""
"visual-search-circle","220","2.2.0","774637","78676","visual_search_trial","550","","j","","","","","","","","","","null","red_blue_mix","11","[""images/Blue_Triangle.png"",""images/Blue_Circle.png"",""images/Blue_Triangle.png""]","true","[[0,135],[196,227],[177,11]]","false",""
"visual-search-circle","221","2.2.0","776681","78676","visual_search_trial","539","","f","","","","","","","","","","null","blue_triangle","11","[""images/Red_Triangle.png"",""images/Blue_Triangle.png"",""images/Blue_Triangle.png""]","true","[[90,245],[246,94],[38,35]]","true",""
"visual-search-circle","222","2.2.0","778738","78676","visual_search_trial","550","","f","","","","","","","","","","null","red_circle","11","[""images/Red_Triangle.png"",""images/Red_Circle.png"",""images/Red_Circle.png"",""images/Red_Circle.png"",""images/Red_Circle.png"",""images/Red_Circle.png"",""images/Red_Circle.png"",""images/Red_Circle.png"",""images/Red_Circle.png""]","true","[[80,8],[15,64],[2,148],[46,222],[127,249],[207,219],[248,144],[232,60],[165,6]]","true",""
"visual-search-circle","223","2.2.0","780808","78676","visual_search_trial","563","","j","","","","","","","","","","null","blue_triangle","11","[""images/Blue_Triangle.png"",""images/Blue_Triangle.png"",""images/Blue_Triangle.png"",""images/Blue_Triangle.png"",""images/Blue_Triangle.png"",""images/Blue_Triangle.png"",""images/Blue_Triangle.png"",""images/Blue_Triangle.png"",""images/Blue_Triangle.png""]","true","[[7,82],[7,167],[62,233],[146,248],[220,205],[250,125],[220,44],[146,1],[62,16]]","false",""
"visual-search-circle","224","2.2.0","782822","78676","visual_search_trial","507","","j","","","","","","","","","","null","red_circle","11","[""images/Red_Circle.png"",""images/Red_Circle.png"",""images/Red_Circle.png"",""images/Red_Circle.png"",""images/Red_Circle.png"",""images/Red_Circle.png"",""images/Red_Circle.png"",""images/Red_Circle.png"",""images/Red_Circle.png""]","true","[[78,9],[14,66],[2,150],[48,223],[129,249],[208,217],[248,142],[231,58],[163,6]]","false",""
"visual-search-circle","225","2.2.0","785174","78676","visual_search_trial","847","","j","","","","","","","","","","null","red_blue_mix","11","[""images/Red_Circle.png"",""images/Red_Circle.png"",""images/Red_Circle.png"",""images/Blue_Circle.png"",""images/Blue_Circle.png"",""images/Blue_Circle.png"",""images/Blue_Circle.png"",""images/Blue_Triangle.png"",""images/Red_Circle.png""]","true","[[64,15],[8,80],[6,165],[60,232],[144,248],[219,207],[249,127],[222,46],[148,2]]","false",""
"visual-search-circle","226","2.2.0","787141","78676","visual_search_trial","462","","j","","","","","","","","","","null","red_circle","11","[""images/Red_Circle.png"",""images/Red_Circle.png"",""images/Red_Circle.png""]","true","[[246,94],[38,35],[90,245]]","false",""
"visual-search-circle","227","2.2.0","789190","78676","visual_search_trial","544","","j","","","","","","","","","","null","blue_triangle","11","[""images/Blue_Triangle.png"",""images/Blue_Triangle.png"",""images/Blue_Triangle.png"",""images/Blue_Triangle.png"",""images/Blue_Triangle.png"",""images/Blue_Triangle.png""]","true","[[32,208],[150,247],[243,163],[217,41],[99,2],[6,86]]","false",""
"visual-search-circle","228","2.2.0","791591","78676","visual_search_trial","896","","f","","","","","","","","","","null","red_blue_mix","11","[""images/Red_Triangle.png"",""images/Red_Circle.png"",""images/Blue_Circle.png"",""images/Red_Circle.png"",""images/Red_Circle.png"",""images/Blue_Triangle.png""]","true","[[189,232],[249,122],[185,15],[60,17],[0,127],[64,234]]","true",""
"visual-search-circle","229","2.2.0","793825","78676","visual_search_trial","729","","f","","","","","","","","","","null","red_circle","11","[""images/Red_Triangle.png"",""images/Red_Circle.png"",""images/Red_Circle.png""]","true","[[23,51],[111,249],[239,74]]","true",""
"visual-search-circle","230","2.2.0","795784","78676","visual_search_trial","455","","f","","","","","","","","","","null","red_blue_mix","11","[""images/Red_Triangle.png"",""images/Blue_Circle.png"",""images/Blue_Circle.png""]","true","[[90,4],[38,214],[246,155]]","true",""
"visual-search-circle","231","2.2.0","797718","78676","visual_search_trial","429","","f","","","","","","","","","","null","blue_triangle","11","[""images/Red_Triangle.png"",""images/Blue_Triangle.png"",""images/Blue_Triangle.png"",""images/Blue_Triangle.png"",""images/Blue_Triangle.png"",""images/Blue_Triangle.png""]","true","[[80,8],[1,105],[46,222],[169,241],[248,144],[203,27]]","true",""
"visual-search-circle","232","2.2.0","800001","78676","visual_search_trial","778","","j","","","","","","","","","","null","red_blue_mix","11","[""images/Red_Circle.png"",""images/Red_Circle.png"",""images/Blue_Triangle.png"",""images/Red_Circle.png"",""images/Blue_Circle.png"",""images/Blue_Triangle.png""]","true","[[125,250],[233,187],[233,62],[125,0],[16,62],[16,187]]","false",""
"visual-search-circle","233","2.2.0","801993","78676","visual_search_trial","487","","f","","","","","","","","","","null","red_circle","11","[""images/Red_Triangle.png"",""images/Red_Circle.png"",""images/Red_Circle.png"",""images/Red_Circle.png"",""images/Red_Circle.png"",""images/Red_Circle.png""]","true","[[22,53],[11,177],[114,249],[227,196],[238,72],[135,0]]","true",""
"visual-search-circle","234","2.2.0","804270","78676","visual_search_trial","770","","f","","","","","","","","","","null","red_blue_mix","11","[""images/Red_Triangle.png"",""images/Blue_Circle.png"",""images/Blue_Triangle.png"",""images/Blue_Triangle.png"",""images/Red_Circle.png"",""images/Blue_Circle.png"",""images/Red_Circle.png"",""images/Red_Circle.png"",""images/Blue_Circle.png""]","true","[[116,0],[38,35],[0,111],[21,194],[90,245],[175,239],[237,179],[246,94],[198,23]]","true",""
