"trial_type","trial_index","plugin_version","time_elapsed","sona_id","phase","rt","stimulus","response","consented","required_key","view_history","question_order","success","timeout","failed_images","failed_audio","failed_video","set_size","distractor_type","block","stimuli_list","correct","locations","target_present","break_key"
"pavlovia","0","null","1068","78932","","","","","","","","","","","","","","","","","","","","",""
"html-button-response","1","2.1.0","77556","78932","informed_consent","76485","
    <div style=""max-width: 900px; margin: 0 auto; padding: 20px; text-align: left; line-height: 1.6;"">
      <h1 style=""text-align: center; color: #333; font-size: 24px; margin-bottom: 10px; font-weight: bold;"">
        INFORMED CONSENT INFORMATION
      </h1>
      <h2 style=""text-align: center; color: #333; font-size: 22px; margin-bottom: 20px; font-weight: bold;"">
        FOR RESEARCH PARTICIPATION
      </h2>
      
      <p style=""margin-bottom: 10px;""><strong>Study Title:</strong> The Effects of Mindfulness and Attention on Life Satisfaction and Memory</p>
      <p style=""margin-bottom: 10px;""><strong>Principal Investigator:</strong> Ella Bremmer</p>
      <p style=""margin-bottom: 10px;""><strong>Co-Principal Investigator:</strong> Dr. Gregory Cox</p>
      <p style=""margin-bottom: 20px;""><strong>IRB Study Number:</strong></p>

      <p style=""margin-bottom: 15px;"">I am a student at the University at Albany, in the Department of Psychology. I am planning to conduct a research study, which I invite you to take part in.</p>
      
      <p style=""margin-bottom: 25px;"">This form has important information about the reasons for doing this study, what we will ask you to do, and the way we would like to use the information we collect about you.</p>

      <h3 style=""color: #333; font-size: 18px; margin-top: 25px; margin-bottom: 10px; font-weight: bold;"">
        Why are you doing this study?
      </h3>
      <p style=""margin-bottom: 15px;"">You are being asked to participate in a research study that aims to understand if there is a relationship between mindfulness, the ability to pay attention, and life satisfaction.</p>
      
      <p style=""margin-bottom: 25px;"">The purpose of this study is to investigate if having better control over one's attention influences overall life satisfaction. Your participation will help us better understand if mindfulness and attention do have a significant effect on life satisfaction (i.e., how people feel about their lives overall). Then you will be asked to perform a conjunction visual search task to test your capacity to direct your attention over a sustained period.</p>

      <h3 style=""color: #333; font-size: 18px; margin-top: 25px; margin-bottom: 10px; font-weight: bold;"">
        Why am I eligible to participate in this study?
      </h3>
      <p style=""margin-bottom: 25px;"">You are eligible to participate because you are a student at UAlbany, are at least 18 years old, and are proficient in English.</p>

      <h3 style=""color: #333; font-size: 18px; margin-top: 25px; margin-bottom: 10px; font-weight: bold;"">
        What will I do if I choose to be in this study?
      </h3>
      <p style=""margin-bottom: 10px;"">If you choose to take part in our study, you will do the following:</p>
      <p style=""margin-bottom: 8px; margin-left: 20px;"">1. Read and agree to the informed consent.</p>
      <p style=""margin-bottom: 8px; margin-left: 40px;"">a. If you choose not to agree to the informed consent, you will be taken back to the SONA site.</p>
      <p style=""margin-bottom: 8px; margin-left: 20px;"">2. Complete a demographic questionnaire that asks about your age, English proficiency, gender, and race.</p>
      <p style=""margin-bottom: 8px; margin-left: 20px;"">3. Read instructions for the visual search task, which asks you to indicate if a target (a red triangle) is present among various other colored shapes. You should press the ""F"" key if a red triangle is present, or the ""J"" key if the target is absent.</p>
      <p style=""margin-bottom: 8px; margin-left: 20px;"">4. You will be asked to respond to 270 visual search trials, whith the opportunity to take short breaks as you go</p>
      <p style=""margin-bottom: 8px; margin-left: 20px;"">5. You will complete the Mindfulness Attention Awareness Scale (MAAS), the Satisfaction With Life Scale (SWLS), and the Big Five Inventory.</p>
      <p style=""margin-bottom: 25px; margin-left: 20px;"">6.	After all questionnaires are completed, participants will be thanked for their time and will be provided the study debriefing. Following the debriefing, you will be sent back to the SONA research site.</p>

      <h3 style=""color: #333; font-size: 18px; margin-top: 25px; margin-bottom: 10px; font-weight: bold;"">
        For how long will I participate?
      </h3>
      <p style=""margin-bottom: 25px;"">This study is a single online session that you can complete on a computer. The study can be completed in less than 30 minutes but could require as long as 45 minutes to complete.</p>

      <h3 style=""color: #333; font-size: 18px; margin-top: 25px; margin-bottom: 10px; font-weight: bold;"">
        Where will I need to go to participate?
      </h3>
      <p style=""margin-bottom: 25px;"">All study procedures will take place online and can be completed wherever you have internet connection.</p>

      <h3 style=""color: #333; font-size: 18px; margin-top: 25px; margin-bottom: 10px; font-weight: bold;"">
        Are there any costs I should be aware of?
      </h3>
      <p style=""margin-bottom: 25px;"">Participation is not expected to incur cost to participants. Free internet access is available anywhere on campus and in the university library.</p>

      <h3 style=""color: #333; font-size: 18px; margin-top: 25px; margin-bottom: 10px; font-weight: bold;"">
        What are the possible risks or discomforts?
      </h3>
      <p style=""margin-bottom: 15px;"">As with all research, there is a chance that confidentiality of the information we collect from you could be breached – we will take steps to minimize this risk, as discussed in more detail below.</p>
      
      <p style=""margin-bottom: 25px;"">The risks associated with participating in this study are minimal; however, you may experience mild discomfort when reflecting on your mindfulness or life satisfaction when answering questionnaires in the study. To help minimize this, you can withdraw from the study at any time without any consequences. The study will take place online, and you will have the opportunity to take breaks while completing the survey to reduce the risk of eye strain associated with the use of electronic devices.</p>

      <h3 style=""color: #333; font-size: 18px; margin-top: 25px; margin-bottom: 10px; font-weight: bold;"">
        What are the possible benefits for me or others?
      </h3>
      <p style=""margin-bottom: 25px;"">While there are no direct personal benefits to participants of this study, you may find value in reflecting on your mindfulness, attention, and its impact on life satisfaction by completing this survey. The data you contribute may help advance society's understanding of how mindfulness and attention relate to overall well-being, potentially informing future programs or interventions aimed at improving student mental health, attention, and life satisfaction.</p>

      <h3 style=""color: #333; font-size: 18px; margin-top: 25px; margin-bottom: 10px; font-weight: bold;"">
        Will I receive compensation for my participation?
      </h3>
      <p style=""margin-bottom: 25px;"">SONA partial class credit will be awarded via the Psychology Department SONA research pool after you complete the survey in its entirety. Participants who withdraw before completing the survey will not receive partial credit. You will not receive monetary compensation for your participation in this study.</p>

      <h3 style=""color: #333; font-size: 18px; margin-top: 25px; margin-bottom: 10px; font-weight: bold;"">
        How will you protect the information you collect about me, and how will that information be shared?
      </h3>
      <p style=""margin-bottom: 15px;"">Results of this study may be used in publications and presentations. Your data will be handled as confidentially as possible, and no identifiable information will be collected to link your data back to you. If results of this study are published or presented, only de-identified summaries of data will be used.</p>
      
      <p style=""margin-bottom: 25px;"">To minimize the risks to confidentiality, all data will be collected anonymously via Pavlovia.org which uses encryption to protect information (https://pavlovia.org/docs/home/ethics). Only the student researcher (Ella Bremmer), mentor (Pierce Johnson), and faculty advisor (Gregory Cox) will have password-protected access to the data. Data will be stored on secure, university approved computers.</p>

      <h3 style=""color: #333; font-size: 18px; margin-top: 25px; margin-bottom: 10px; font-weight: bold;"">
        Will my data be used in future research?
      </h3>
      <p style=""margin-bottom: 25px;"">No personal identifiers will be collected in the data you provide us. Data will not be used in future research, and will be deleted after the required retention period.</p>

      <h3 style=""color: #333; font-size: 18px; margin-top: 25px; margin-bottom: 10px; font-weight: bold;"">
        What are my rights as a research participant?
      </h3>
      <p style=""margin-bottom: 15px;"">Participation in this study is voluntary. You do not have to answer any question you do not want to answer. If at any time and for any reason, you would prefer not to participate in this study, please feel free not to. If at any time you would like to stop participating, you are welcome to stop. You can take a break or stop altogether. You may withdraw from this study at any time, and you will not be penalized in any way for deciding to stop participation.</p>
      
      <p style=""margin-bottom: 25px;"">If you decide to withdraw from this study, any information collected from you before withdrawing will not be used, and your data will be deleted.</p>

      <h3 style=""color: #333; font-size: 18px; margin-top: 25px; margin-bottom: 10px; font-weight: bold;"">
        What if I am a University at Albany student or employee?
      </h3>
      <p style=""margin-bottom: 25px;"">You may choose not to participate or to stop participating in this research at any time. This will not affect your class standing, grades, employment, or any other aspects of your relationship with the University at Albany.</p>

      <h3 style=""color: #333; font-size: 18px; margin-top: 25px; margin-bottom: 10px; font-weight: bold;"">
        Who can I contact if I have questions or concerns about this research study?
      </h3>
      <p style=""margin-bottom: 15px;"">If you have questions, please feel free to stop and email the investigator, Ella Bremmer (ebremmer@albany.edu) or advisors, Pierce Johnson (pjohnson4@albany.edu) and Dr. Greg Cox (gecox@albany.edu). If you have questions later, you may also contact the researchers.</p>
      
      <p style=""margin-bottom: 10px;"">If you have any questions about your rights as a participant in this research, you can contact the following office at the University at Albany:</p>
      
      <p style=""margin-bottom: 5px; margin-left: 20px;"">Institutional Review Board</p>
      <p style=""margin-bottom: 5px; margin-left: 20px;"">University at Albany</p>
      <p style=""margin-bottom: 5px; margin-left: 20px;"">Office of Regulatory and Research Compliance</p>
      <p style=""margin-bottom: 5px; margin-left: 20px;"">1400 Washington Ave, Biology 227</p>
      <p style=""margin-bottom: 5px; margin-left: 20px;"">Albany, NY 12222</p>
      <p style=""margin-bottom: 5px; margin-left: 20px;"">Phone: 1-866-857-5459</p>
      <p style=""margin-bottom: 25px; margin-left: 20px;"">Email: rco@albany.edu</p>

      <h3 style=""color: #333; font-size: 18px; margin-top: 30px; margin-bottom: 10px; font-weight: bold;"">
        Consent
      </h3>
      <p style=""margin-bottom: 20px;"">I have read this form and the research study has been explained to me. I have been given the opportunity to ask questions and my questions have been answered. If I have additional questions, I have been told whom to contact. I agree to participate in the research study described above. I understand that I have the opportunity to download and save a copy of this form for my records.</p>

      <div style=""background-color: #f9f9f9; border: 2px solid #4CAF50; border-radius: 5px; padding: 20px; margin-top: 20px; margin-bottom: 20px;"">
        <p style=""margin-bottom: 15px; font-weight: bold;"">To save a copy of this consent form for your records, press Ctrl+P (Windows/Linux) or Cmd+P (Mac) and select ""Save as PDF"".</p>
        <p style=""margin-bottom: 0; font-weight: bold;"">By clicking ""I Agree"" below, I confirm that I agree to participate in the research study described above, and that doing so serves as my written signature consenting to take part in the study.</p>
      </div>
    </div>
  ","0","true","","","","","","","","","","","","","","","",""
"instructions","3","2.1.0","81400","78932","intro_instructions","3842","","","","j","[{""page_index"":0,""viewing_time"":3842}]","","","","","","","","","","","","","",""
"html-keyboard-response","4","2.1.0","83403","78932","intermediate_slide_demo","null","<p style=""font-size:4vw"">Demographic Questionnaire</p>","null","","","","","","","","","","","","","","","","",""
"survey-multi-choice","5","2.1.0","96793","78932","demographics_english","13388","","{""english"":""Strongly agree""}","","","","[0]","","","","","","","","","","","","",""
"survey-text","7","2.1.0","101161","78932","demographics_age","4355","","{""age"":""18""}","","","","","","","","","","","","","","","","",""
"survey-multi-select","9","2.1.0","106594","78932","demographics_gender","5432","","{""gender"":[""Woman""]}","","","","[0]","","","","","","","","","","","","",""
"survey-multi-choice","11","2.1.0","110924","78932","demographics_race","4328","","{""race"":""Black or African American""}","","","","[0]","","","","","","","","","","","","",""
"html-keyboard-response","12","2.1.0","112927","78932","intermediate_slide_VS","null","<p style=""font-size:4vw"">Visual Search Task</p>","null","","","","","","","","","","","","","","","","",""
"preload","13","2.1.0","113171","78932","image_preload","","","","","","","","true","false","[]","[]","[]","","","","","","","",""
"html-button-response","14","2.1.0","121458","78932","vs_instructions","8285","<p>On the following screens, you will see a series of colored shapes (triangles, squares, and circles) appear.</p>
    <p>Please Press 'F' if there <strong>is</strong> a red triangle among the shapes you see.</p>
    <p>Press 'J' if there is <strong>not</strong> a red triangle among the shapes you see.</p>","0","","","","","","","","","","","","","","","","",""
"visual-search-circle","15","2.2.0","125789","78932","visual_search_trial","2826","","f","","","","","","","","","","null","red_blue_mix","0","[""images/Red_Triangle.png"",""images/Blue_Triangle.png"",""images/Red_Circle.png""]","true","[[161,5],[3,153],[210,216]]","true",""
"visual-search-circle","16","2.2.0","129373","78932","visual_search_trial","2080","","f","","","","","","","","","","null","blue_triangle","0","[""images/Red_Triangle.png"",""images/Blue_Triangle.png"",""images/Blue_Triangle.png""]","true","[[159,4],[3,155],[211,214]]","true",""
"visual-search-circle","17","2.2.0","134664","78932","visual_search_trial","3786","","j","","","","","","","","","","null","red_blue_mix","0","[""images/Blue_Circle.png"",""images/Blue_Triangle.png"",""images/Blue_Triangle.png"",""images/Blue_Circle.png"",""images/Blue_Circle.png"",""images/Blue_Circle.png""]","true","[[223,201],[240,78],[142,1],[26,48],[9,171],[107,248]]","false",""
"visual-search-circle","18","2.2.0","137463","78932","visual_search_trial","1295","","f","","","","","","","","","","null","red_circle","0","[""images/Red_Triangle.png"",""images/Red_Circle.png"",""images/Red_Circle.png"",""images/Red_Circle.png"",""images/Red_Circle.png"",""images/Red_Circle.png"",""images/Red_Circle.png"",""images/Red_Circle.png"",""images/Red_Circle.png""]","true","[[144,1],[60,17],[6,84],[8,169],[64,234],[148,247],[222,203],[249,122],[219,42]]","true",""
"visual-search-circle","19","2.2.0","141531","78932","visual_search_trial","2562","","j","","","","","","","","","","null","red_blue_mix","0","[""images/Blue_Circle.png"",""images/Blue_Circle.png"",""images/Blue_Circle.png"",""images/Blue_Circle.png"",""images/Blue_Triangle.png"",""images/Blue_Triangle.png"",""images/Blue_Triangle.png"",""images/Red_Circle.png"",""images/Blue_Triangle.png""]","true","[[161,244],[229,193],[249,109],[210,33],[131,0],[49,25],[3,96],[13,181],[76,240]]","false",""
"visual-search-circle","20","2.2.0","144032","78932","visual_search_trial","997","","j","","","","","","","","","","null","red_circle","0","[""images/Red_Circle.png"",""images/Red_Circle.png"",""images/Red_Circle.png""]","true","[[116,0],[21,194],[237,179]]","false",""
"visual-search-circle","21","2.2.0","146622","78932","visual_search_trial","1086","","f","","","","","","","","","","null","blue_triangle","0","[""images/Red_Triangle.png"",""images/Blue_Triangle.png"",""images/Blue_Triangle.png"",""images/Blue_Triangle.png"",""images/Blue_Triangle.png"",""images/Blue_Triangle.png""]","true","[[235,183],[231,58],[120,0],[14,66],[18,191],[129,249]]","true",""
"visual-search-circle","22","2.2.0","149116","78932","visual_search_trial","990","","j","","","","","","","","","","null","red_blue_mix","0","[""images/Red_Circle.png"",""images/Red_Circle.png"",""images/Red_Circle.png""]","true","[[96,246],[244,88],[33,39]]","false",""
"visual-search-circle","23","2.2.0","151607","78932","visual_search_trial","986","","f","","","","","","","","","","null","red_circle","0","[""images/Red_Triangle.png"",""images/Red_Circle.png"",""images/Red_Circle.png""]","true","[[101,2],[30,207],[243,165]]","true",""
"visual-search-circle","24","2.2.0","154198","78932","visual_search_trial","1086","","f","","","","","","","","","","null","blue_triangle","0","[""images/Red_Triangle.png"",""images/Blue_Triangle.png"",""images/Blue_Triangle.png"",""images/Blue_Triangle.png"",""images/Blue_Triangle.png"",""images/Blue_Triangle.png"",""images/Blue_Triangle.png"",""images/Blue_Triangle.png"",""images/Blue_Triangle.png""]","true","[[111,0],[35,38],[0,116],[23,198],[94,246],[179,237],[239,175],[245,90],[194,21]]","true",""
"visual-search-circle","25","2.2.0","156832","78932","visual_search_trial","1130","","f","","","","","","","","","","null","red_circle","0","[""images/Red_Triangle.png"",""images/Red_Circle.png"",""images/Red_Circle.png"",""images/Red_Circle.png"",""images/Red_Circle.png"",""images/Red_Circle.png""]","true","[[196,227],[249,114],[177,11],[53,22],[0,135],[72,238]]","true",""
"visual-search-circle","26","2.2.0","159339","78932","visual_search_trial","1003","","j","","","","","","","","","","null","blue_triangle","0","[""images/Blue_Triangle.png"",""images/Blue_Triangle.png"",""images/Blue_Triangle.png""]","true","[[90,245],[246,94],[38,35]]","false",""
"visual-search-circle","27","2.2.0","162489","78932","visual_search_trial","1645","","j","","","","","","","","","","null","red_circle","0","[""images/Red_Circle.png"",""images/Red_Circle.png"",""images/Red_Circle.png"",""images/Red_Circle.png"",""images/Red_Circle.png"",""images/Red_Circle.png"",""images/Red_Circle.png"",""images/Red_Circle.png"",""images/Red_Circle.png""]","true","[[243,163],[240,78],[183,14],[99,2],[26,48],[0,129],[32,208],[107,248],[191,231]]","false",""
"visual-search-circle","28","2.2.0","165249","78932","visual_search_trial","1255","","f","","","","","","","","","","null","red_blue_mix","0","[""images/Red_Triangle.png"",""images/Blue_Triangle.png"",""images/Blue_Circle.png"",""images/Red_Circle.png"",""images/Red_Circle.png"",""images/Red_Circle.png"",""images/Blue_Triangle.png"",""images/Blue_Circle.png"",""images/Blue_Circle.png""]","true","[[223,201],[249,120],[217,41],[142,1],[58,18],[6,86],[9,171],[66,235],[150,247]]","true",""
"visual-search-circle","29","2.2.0","167715","78932","visual_search_trial","960","","j","","","","","","","","","","null","blue_triangle","0","[""images/Blue_Triangle.png"",""images/Blue_Triangle.png"",""images/Blue_Triangle.png"",""images/Blue_Triangle.png"",""images/Blue_Triangle.png"",""images/Blue_Triangle.png""]","true","[[42,219],[165,243],[247,148],[207,30],[84,6],[2,101]]","false",""
"visual-search-circle","30","2.2.0","169932","78932","visual_search_trial","712","","j","","","","","","","","","","null","red_circle","0","[""images/Red_Circle.png"",""images/Red_Circle.png"",""images/Red_Circle.png"",""images/Red_Circle.png"",""images/Red_Circle.png"",""images/Red_Circle.png""]","true","[[210,216],[246,96],[161,5],[39,33],[3,153],[88,244]]","false",""
"visual-search-circle","31","2.2.0","172458","78932","visual_search_trial","1022","","j","","","","","","","","","","null","blue_triangle","0","[""images/Blue_Triangle.png"",""images/Blue_Triangle.png"",""images/Blue_Triangle.png"",""images/Blue_Triangle.png"",""images/Blue_Triangle.png"",""images/Blue_Triangle.png"",""images/Blue_Triangle.png"",""images/Blue_Triangle.png"",""images/Blue_Triangle.png""]","true","[[7,167],[62,233],[146,248],[220,205],[250,125],[220,44],[146,1],[62,16],[7,82]]","false",""
"visual-search-circle","32","2.2.0","174952","78932","visual_search_trial","990","","f","","","","","","","","","","null","red_blue_mix","0","[""images/Red_Triangle.png"",""images/Blue_Triangle.png"",""images/Blue_Triangle.png"",""images/Blue_Triangle.png"",""images/Red_Circle.png"",""images/Blue_Triangle.png""]","true","[[35,38],[4,159],[94,246],[214,211],[245,90],[155,3]]","true",""
"visual-search-circle","33","2.2.0","177570","78932","visual_search_trial","1114","","j","","","","","","","","","","null","red_blue_mix","1","[""images/Red_Circle.png"",""images/Red_Circle.png"",""images/Blue_Triangle.png"",""images/Blue_Triangle.png"",""images/Blue_Circle.png"",""images/Red_Circle.png""]","true","[[49,224],[173,240],[249,140],[200,25],[76,9],[0,109]]","false",""
"visual-search-circle","34","2.2.0","179993","78932","visual_search_trial","919","","f","","","","","","","","","","null","blue_triangle","1","[""images/Red_Triangle.png"",""images/Blue_Triangle.png"",""images/Blue_Triangle.png"",""images/Blue_Triangle.png"",""images/Blue_Triangle.png"",""images/Blue_Triangle.png""]","true","[[247,101],[165,6],[42,30],[2,148],[84,243],[207,219]]","true",""
"visual-search-circle","35","2.2.0","182452","78932","visual_search_trial","955","","f","","","","","","","","","","null","red_blue_mix","1","[""images/Red_Triangle.png"",""images/Blue_Triangle.png"",""images/Blue_Triangle.png"",""images/Blue_Triangle.png"",""images/Red_Circle.png"",""images/Blue_Circle.png""]","true","[[207,30],[84,6],[2,101],[42,219],[165,243],[247,148]]","true",""
"visual-search-circle","36","2.2.0","184676","78932","visual_search_trial","719","","j","","","","","","","","","","null","red_circle","1","[""images/Red_Circle.png"",""images/Red_Circle.png"",""images/Red_Circle.png"",""images/Red_Circle.png"",""images/Red_Circle.png"",""images/Red_Circle.png""]","true","[[29,205],[146,248],[242,167],[220,44],[103,1],[7,82]]","false",""
"visual-search-circle","37","2.2.0","187061","78932","visual_search_trial","881","","j","","","","","","","","","","null","red_blue_mix","1","[""images/Blue_Circle.png"",""images/Red_Circle.png"",""images/Red_Circle.png""]","true","[[191,18],[0,120],[183,235]]","false",""
"visual-search-circle","38","2.2.0","189368","78932","visual_search_trial","801","","f","","","","","","","","","","null","red_circle","1","[""images/Red_Triangle.png"",""images/Red_Circle.png"",""images/Red_Circle.png"",""images/Red_Circle.png"",""images/Red_Circle.png"",""images/Red_Circle.png"",""images/Red_Circle.png"",""images/Red_Circle.png"",""images/Red_Circle.png""]","true","[[4,92],[11,177],[72,238],[157,245],[227,196],[249,114],[213,36],[135,0],[53,22]]","true",""
"visual-search-circle","39","2.2.0","193381","78932","visual_search_trial","2508","","f","","","","","","","","","","null","red_blue_mix","1","[""images/Red_Triangle.png"",""images/Blue_Circle.png"",""images/Blue_Triangle.png""]","true","[[0,120],[183,235],[191,18]]","true",""
"visual-search-circle","40","2.2.0","195877","78932","visual_search_trial","991","","j","","","","","","","","","","null","blue_triangle","1","[""images/Blue_Triangle.png"",""images/Blue_Triangle.png"",""images/Blue_Triangle.png""]","true","[[116,249],[237,70],[21,55]]","false",""
"visual-search-circle","41","2.2.0","199236","78932","visual_search_trial","1853","","j","","","","","","","","","","null","red_blue_mix","1","[""images/Blue_Circle.png"",""images/Blue_Circle.png"",""images/Blue_Triangle.png"",""images/Blue_Triangle.png"",""images/Red_Circle.png"",""images/Red_Circle.png"",""images/Red_Circle.png"",""images/Blue_Triangle.png"",""images/Red_Circle.png""]","true","[[249,138],[228,55],[159,4],[74,10],[12,70],[3,155],[51,226],[133,249],[211,214]]","false",""
"visual-search-circle","42","2.2.0","201648","78932","visual_search_trial","908","","f","","","","","","","","","","null","blue_triangle","1","[""images/Red_Triangle.png"",""images/Blue_Triangle.png"",""images/Blue_Triangle.png"",""images/Blue_Triangle.png"",""images/Blue_Triangle.png"",""images/Blue_Triangle.png"",""images/Blue_Triangle.png"",""images/Blue_Triangle.png"",""images/Blue_Triangle.png""]","true","[[236,68],[173,9],[88,5],[20,56],[0,140],[39,216],[118,249],[200,224],[246,153]]","true",""
"visual-search-circle","43","2.2.0","204368","78932","visual_search_trial","1217","","f","","","","","","","","","","null","red_circle","1","[""images/Red_Triangle.png"",""images/Red_Circle.png"",""images/Red_Circle.png""]","true","[[234,64],[17,60],[122,249]]","true",""
"visual-search-circle","44","2.2.0","206732","78932","visual_search_trial","859","","j","","","","","","","","","","null","blue_triangle","1","[""images/Blue_Triangle.png"",""images/Blue_Triangle.png"",""images/Blue_Triangle.png"",""images/Blue_Triangle.png"",""images/Blue_Triangle.png"",""images/Blue_Triangle.png"",""images/Blue_Triangle.png"",""images/Blue_Triangle.png"",""images/Blue_Triangle.png""]","true","[[105,248],[189,232],[243,165],[241,80],[185,15],[101,2],[27,46],[0,127],[30,207]]","false",""
"visual-search-circle","45","2.2.0","210342","78932","visual_search_trial","2104","","j","","","","","","","","","","null","red_circle","1","[""images/Red_Circle.png"",""images/Red_Circle.png"",""images/Red_Circle.png"",""images/Red_Circle.png"",""images/Red_Circle.png"",""images/Red_Circle.png"",""images/Red_Circle.png"",""images/Red_Circle.png"",""images/Red_Circle.png""]","true","[[249,111],[211,35],[133,0],[51,23],[3,94],[12,179],[74,239],[159,245],[228,194]]","false",""
"visual-search-circle","46","2.2.0","212847","78932","visual_search_trial","1001","","f","","","","","","","","","","null","red_blue_mix","1","[""images/Red_Triangle.png"",""images/Red_Circle.png"",""images/Blue_Circle.png"",""images/Red_Circle.png"",""images/Blue_Triangle.png"",""images/Red_Circle.png"",""images/Blue_Circle.png"",""images/Blue_Circle.png"",""images/Blue_Circle.png""]","true","[[9,171],[66,235],[150,247],[223,201],[249,120],[217,41],[142,1],[58,18],[6,86]]","true",""
"visual-search-circle","47","2.2.0","215410","78932","visual_search_trial","1061","","f","","","","","","","","","","null","blue_triangle","1","[""images/Red_Triangle.png"",""images/Blue_Triangle.png"",""images/Blue_Triangle.png""]","true","[[181,236],[193,20],[0,118]]","true",""
"visual-search-circle","48","2.2.0","217769","78932","visual_search_trial","855","","f","","","","","","","","","","null","red_circle","1","[""images/Red_Triangle.png"",""images/Red_Circle.png"",""images/Red_Circle.png"",""images/Red_Circle.png"",""images/Red_Circle.png"",""images/Red_Circle.png""]","true","[[211,35],[90,4],[3,94],[38,214],[159,245],[246,155]]","true",""
"visual-search-circle","49","2.2.0","220122","78932","visual_search_trial","849","","j","","","","","","","","","","null","blue_triangle","1","[""images/Blue_Triangle.png"",""images/Blue_Triangle.png"",""images/Blue_Triangle.png"",""images/Blue_Triangle.png"",""images/Blue_Triangle.png"",""images/Blue_Triangle.png""]","true","[[2,148],[84,243],[207,219],[247,101],[165,6],[42,30]]","false",""
"visual-search-circle","50","2.2.0","223296","78932","visual_search_trial","1670","","j","","","","","","","","","","null","red_circle","1","[""images/Red_Circle.png"",""images/Red_Circle.png"",""images/Red_Circle.png""]","true","[[49,224],[249,140],[76,9]]","false",""
"html-keyboard-response","51","2.1.0","227887","78932","break","4589","<p>Great job so far! Please rest for a few seconds before continuing.</p>
                 <p>Press the <strong>C</strong> key on your keyboard to continue.</p>","c","","","","","","","","","","","","","","","","","C"
"visual-search-circle","52","2.2.0","231036","78932","visual_search_trial","1644","","j","","","","","","","","","","null","blue_triangle","2","[""images/Blue_Triangle.png"",""images/Blue_Triangle.png"",""images/Blue_Triangle.png"",""images/Blue_Triangle.png"",""images/Blue_Triangle.png"",""images/Blue_Triangle.png""]","true","[[135,249],[238,177],[227,53],[114,0],[11,72],[22,196]]","false",""
"visual-search-circle","53","2.2.0","233454","78932","visual_search_trial","915","","f","","","","","","","","","","null","red_circle","2","[""images/Red_Triangle.png"",""images/Red_Circle.png"",""images/Red_Circle.png"",""images/Red_Circle.png"",""images/Red_Circle.png"",""images/Red_Circle.png""]","true","[[144,1],[27,46],[8,169],[105,248],[222,203],[241,80]]","true",""
"visual-search-circle","54","2.2.0","235568","78932","visual_search_trial","609","","f","","","","","","","","","","null","red_blue_mix","2","[""images/Red_Triangle.png"",""images/Blue_Triangle.png"",""images/Blue_Triangle.png"",""images/Red_Circle.png"",""images/Blue_Triangle.png"",""images/Red_Circle.png""]","true","[[35,211],[155,246],[245,159],[214,38],[94,3],[4,90]]","true",""
"visual-search-circle","55","2.2.0","237756","78932","visual_search_trial","683","","f","","","","","","","","","","null","blue_triangle","2","[""images/Red_Triangle.png"",""images/Blue_Triangle.png"",""images/Blue_Triangle.png"",""images/Blue_Triangle.png"",""images/Blue_Triangle.png"",""images/Blue_Triangle.png"",""images/Blue_Triangle.png"",""images/Blue_Triangle.png"",""images/Blue_Triangle.png""]","true","[[78,9],[14,66],[2,150],[48,223],[129,249],[208,217],[248,142],[231,58],[163,6]]","true",""
"visual-search-circle","56","2.2.0","240573","78932","visual_search_trial","1312","","j","","","","","","","","","","null","red_blue_mix","2","[""images/Blue_Triangle.png"",""images/Blue_Triangle.png"",""images/Blue_Triangle.png"",""images/Red_Circle.png"",""images/Red_Circle.png"",""images/Red_Circle.png""]","true","[[219,42],[101,2],[6,84],[30,207],[148,247],[243,165]]","false",""
"visual-search-circle","57","2.2.0","242707","78932","visual_search_trial","631","","f","","","","","","","","","","null","blue_triangle","2","[""images/Red_Triangle.png"",""images/Blue_Triangle.png"",""images/Blue_Triangle.png"",""images/Blue_Triangle.png"",""images/Blue_Triangle.png"",""images/Blue_Triangle.png""]","true","[[247,150],[208,32],[86,6],[2,99],[41,217],[163,243]]","true",""
"visual-search-circle","58","2.2.0","244985","78932","visual_search_trial","773","","f","","","","","","","","","","null","red_blue_mix","2","[""images/Red_Triangle.png"",""images/Red_Circle.png"",""images/Red_Circle.png"",""images/Blue_Circle.png"",""images/Red_Circle.png"",""images/Blue_Circle.png"",""images/Blue_Circle.png"",""images/Blue_Triangle.png"",""images/Red_Circle.png""]","true","[[233,187],[248,103],[205,29],[125,0],[44,29],[1,103],[16,187],[82,242],[167,242]]","true",""
"visual-search-circle","59","2.2.0","247086","78932","visual_search_trial","597","","j","","","","","","","","","","null","red_circle","2","[""images/Red_Circle.png"",""images/Red_Circle.png"",""images/Red_Circle.png""]","true","[[239,175],[111,0],[23,198]]","false",""
"visual-search-circle","60","2.2.0","249374","78932","visual_search_trial","785","","j","","","","","","","","","","null","blue_triangle","2","[""images/Blue_Triangle.png"",""images/Blue_Triangle.png"",""images/Blue_Triangle.png""]","true","[[185,234],[189,17],[0,122]]","false",""
"visual-search-circle","61","2.2.0","251626","78932","visual_search_trial","748","","j","","","","","","","","","","null","red_blue_mix","2","[""images/Blue_Triangle.png"",""images/Red_Circle.png"",""images/Blue_Triangle.png""]","true","[[8,80],[144,248],[222,46]]","false",""
"visual-search-circle","62","2.2.0","253703","78932","visual_search_trial","574","","f","","","","","","","","","","null","red_circle","2","[""images/Red_Triangle.png"",""images/Red_Circle.png"",""images/Red_Circle.png""]","true","[[224,49],[9,76],[140,249]]","true",""
"visual-search-circle","63","2.2.0","256004","78932","visual_search_trial","796","","j","","","","","","","","","","null","blue_triangle","2","[""images/Blue_Triangle.png"",""images/Blue_Triangle.png"",""images/Blue_Triangle.png"",""images/Blue_Triangle.png"",""images/Blue_Triangle.png"",""images/Blue_Triangle.png"",""images/Blue_Triangle.png"",""images/Blue_Triangle.png"",""images/Blue_Triangle.png""]","true","[[233,62],[167,7],[82,7],[16,62],[1,146],[44,220],[125,250],[205,220],[248,146]]","false",""
"visual-search-circle","64","2.2.0","258229","78932","visual_search_trial","720","","j","","","","","","","","","","null","red_circle","2","[""images/Red_Circle.png"",""images/Red_Circle.png"",""images/Red_Circle.png"",""images/Red_Circle.png"",""images/Red_Circle.png"",""images/Red_Circle.png"",""images/Red_Circle.png"",""images/Red_Circle.png"",""images/Red_Circle.png""]","true","[[159,4],[74,10],[12,70],[3,155],[51,226],[133,249],[211,214],[249,138],[228,55]]","false",""
"visual-search-circle","65","2.2.0","260449","78932","visual_search_trial","716","","f","","","","","","","","","","null","blue_triangle","2","[""images/Red_Triangle.png"",""images/Blue_Triangle.png"",""images/Blue_Triangle.png""]","true","[[76,240],[249,109],[49,25]]","true",""
"visual-search-circle","66","2.2.0","262982","78932","visual_search_trial","1028","","j","","","","","","","","","","null","red_blue_mix","2","[""images/Blue_Triangle.png"",""images/Blue_Triangle.png"",""images/Blue_Circle.png"",""images/Red_Circle.png"",""images/Red_Circle.png"",""images/Red_Circle.png"",""images/Blue_Circle.png"",""images/Blue_Triangle.png"",""images/Blue_Triangle.png""]","true","[[239,74],[179,12],[94,3],[23,51],[0,133],[35,211],[111,249],[194,228],[245,159]]","false",""
"visual-search-circle","67","2.2.0","265429","78932","visual_search_trial","942","","j","","","","","","","","","","null","red_circle","2","[""images/Red_Circle.png"",""images/Red_Circle.png"",""images/Red_Circle.png"",""images/Red_Circle.png"",""images/Red_Circle.png"",""images/Red_Circle.png""]","true","[[140,0],[25,49],[9,173],[109,249],[224,200],[240,76]]","false",""
"visual-search-circle","68","2.2.0","267452","78932","visual_search_trial","520","","f","","","","","","","","","","null","red_blue_mix","2","[""images/Red_Triangle.png"",""images/Blue_Triangle.png"",""images/Blue_Triangle.png""]","true","[[248,105],[46,27],[80,241]]","true",""
"visual-search-circle","69","2.2.0","269525","78932","visual_search_trial","568","","f","","","","","","","","","","null","red_circle","2","[""images/Red_Triangle.png"",""images/Red_Circle.png"",""images/Red_Circle.png"",""images/Red_Circle.png"",""images/Red_Circle.png"",""images/Red_Circle.png"",""images/Red_Circle.png"",""images/Red_Circle.png"",""images/Red_Circle.png""]","true","[[88,5],[20,56],[0,140],[39,216],[118,249],[200,224],[246,153],[236,68],[173,9]]","true",""
"visual-search-circle","70","2.2.0","272866","78932","visual_search_trial","1838","","f","","","","","","","","","","null","red_circle","3","[""images/Red_Triangle.png"",""images/Red_Circle.png"",""images/Red_Circle.png""]","true","[[249,133],[70,12],[55,228]]","true",""
"visual-search-circle","71","2.2.0","274997","78932","visual_search_trial","626","","j","","","","","","","","","","null","red_blue_mix","3","[""images/Blue_Circle.png"",""images/Red_Circle.png"",""images/Red_Circle.png"",""images/Blue_Circle.png"",""images/Blue_Circle.png"",""images/Blue_Circle.png""]","true","[[169,241],[248,144],[203,27],[80,8],[1,105],[46,222]]","false",""
"visual-search-circle","72","2.2.0","277094","78932","visual_search_trial","594","","f","","","","","","","","","","null","blue_triangle","3","[""images/Red_Triangle.png"",""images/Blue_Triangle.png"",""images/Blue_Triangle.png""]","true","[[155,246],[214,38],[4,90]]","true",""
"visual-search-circle","73","2.2.0","279172","78932","visual_search_trial","574","","f","","","","","","","","","","null","red_circle","3","[""images/Red_Triangle.png"",""images/Red_Circle.png"",""images/Red_Circle.png"",""images/Red_Circle.png"",""images/Red_Circle.png"",""images/Red_Circle.png"",""images/Red_Circle.png"",""images/Red_Circle.png"",""images/Red_Circle.png""]","true","[[249,135],[227,53],[157,4],[72,11],[11,72],[4,157],[53,227],[135,249],[213,213]]","true",""
"visual-search-circle","74","2.2.0","281458","78932","visual_search_trial","781","","j","","","","","","","","","","null","blue_triangle","3","[""images/Blue_Triangle.png"",""images/Blue_Triangle.png"",""images/Blue_Triangle.png"",""images/Blue_Triangle.png"",""images/Blue_Triangle.png"",""images/Blue_Triangle.png"",""images/Blue_Triangle.png"",""images/Blue_Triangle.png"",""images/Blue_Triangle.png""]","true","[[122,249],[203,222],[247,148],[234,64],[169,8],[84,6],[17,60],[1,144],[42,219]]","false",""
"visual-search-circle","75","2.2.0","283487","78932","visual_search_trial","525","","f","","","","","","","","","","null","red_blue_mix","3","[""images/Red_Triangle.png"",""images/Blue_Triangle.png"",""images/Red_Circle.png"",""images/Red_Circle.png"",""images/Blue_Circle.png"",""images/Blue_Triangle.png""]","true","[[237,70],[133,0],[21,55],[12,179],[116,249],[228,194]]","true",""
"visual-search-circle","76","2.2.0","285475","78932","visual_search_trial","483","","j","","","","","","","","","","null","red_circle","3","[""images/Red_Circle.png"",""images/Red_Circle.png"",""images/Red_Circle.png"",""images/Red_Circle.png"",""images/Red_Circle.png"",""images/Red_Circle.png"",""images/Red_Circle.png"",""images/Red_Circle.png"",""images/Red_Circle.png""]","true","[[223,48],[150,2],[66,14],[9,78],[6,163],[58,231],[142,248],[217,208],[249,129]]","false",""
"visual-search-circle","77","2.2.0","287632","78932","visual_search_trial","654","","j","","","","","","","","","","null","blue_triangle","3","[""images/Blue_Triangle.png"",""images/Blue_Triangle.png"",""images/Blue_Triangle.png""]","true","[[0,127],[189,232],[185,15]]","false",""
"visual-search-circle","78","2.2.0","289633","78932","visual_search_trial","497","","j","","","","","","","","","","null","red_blue_mix","3","[""images/Red_Circle.png"",""images/Red_Circle.png"",""images/Red_Circle.png""]","true","[[203,27],[1,105],[169,241]]","false",""
"visual-search-circle","79","2.2.0","291618","78932","visual_search_trial","481","","j","","","","","","","","","","null","red_circle","3","[""images/Red_Circle.png"",""images/Red_Circle.png"",""images/Red_Circle.png""]","true","[[183,14],[0,129],[191,231]]","false",""
"visual-search-circle","80","2.2.0","294794","78932","visual_search_trial","1671","","j","","","","","","","","","","null","red_blue_mix","3","[""images/Blue_Triangle.png"",""images/Red_Circle.png"",""images/Red_Circle.png"",""images/Blue_Triangle.png"",""images/Blue_Circle.png"",""images/Blue_Circle.png"",""images/Blue_Circle.png"",""images/Blue_Triangle.png"",""images/Blue_Triangle.png""]","true","[[12,179],[74,239],[159,245],[228,194],[249,111],[211,35],[133,0],[51,23],[3,94]]","false",""
"visual-search-circle","81","2.2.0","296938","78932","visual_search_trial","640","","f","","","","","","","","","","null","red_circle","3","[""images/Red_Triangle.png"",""images/Red_Circle.png"",""images/Red_Circle.png"",""images/Red_Circle.png"",""images/Red_Circle.png"",""images/Red_Circle.png""]","true","[[107,248],[223,201],[240,78],[142,1],[26,48],[9,171]]","true",""
"visual-search-circle","82","2.2.0","299185","78932","visual_search_trial","744","","f","","","","","","","","","","null","blue_triangle","3","[""images/Red_Triangle.png"",""images/Blue_Triangle.png"",""images/Blue_Triangle.png"",""images/Blue_Triangle.png"",""images/Blue_Triangle.png"",""images/Blue_Triangle.png""]","true","[[243,163],[217,41],[99,2],[6,86],[32,208],[150,247]]","true",""
"visual-search-circle","83","2.2.0","301533","78932","visual_search_trial","843","","f","","","","","","","","","","null","red_blue_mix","3","[""images/Red_Triangle.png"",""images/Blue_Circle.png"",""images/Blue_Triangle.png"",""images/Blue_Triangle.png"",""images/Blue_Circle.png"",""images/Blue_Circle.png"",""images/Red_Circle.png"",""images/Blue_Circle.png"",""images/Blue_Triangle.png""]","true","[[14,66],[2,150],[48,223],[129,249],[208,217],[248,142],[231,58],[163,6],[78,9]]","true",""
"visual-search-circle","84","2.2.0","303820","78932","visual_search_trial","782","","f","","","","","","","","","","null","blue_triangle","3","[""images/Red_Triangle.png"",""images/Blue_Triangle.png"",""images/Blue_Triangle.png"",""images/Blue_Triangle.png"",""images/Blue_Triangle.png"",""images/Blue_Triangle.png"",""images/Blue_Triangle.png"",""images/Blue_Triangle.png"",""images/Blue_Triangle.png""]","true","[[12,179],[74,239],[159,245],[228,194],[249,111],[211,35],[133,0],[51,23],[3,94]]","true",""
"visual-search-circle","85","2.2.0","306069","78932","visual_search_trial","746","","j","","","","","","","","","","null","red_circle","3","[""images/Red_Circle.png"",""images/Red_Circle.png"",""images/Red_Circle.png"",""images/Red_Circle.png"",""images/Red_Circle.png"",""images/Red_Circle.png""]","true","[[173,9],[49,25],[0,140],[76,240],[200,224],[249,109]]","false",""
"visual-search-circle","86","2.2.0","308387","78932","visual_search_trial","814","","j","","","","","","","","","","null","blue_triangle","3","[""images/Blue_Triangle.png"",""images/Blue_Triangle.png"",""images/Blue_Triangle.png"",""images/Blue_Triangle.png"",""images/Blue_Triangle.png"",""images/Blue_Triangle.png""]","true","[[6,163],[99,247],[217,208],[243,86],[150,2],[32,41]]","false",""
"visual-search-circle","87","2.2.0","310607","78932","visual_search_trial","717","","f","","","","","","","","","","null","red_blue_mix","3","[""images/Red_Triangle.png"",""images/Blue_Circle.png"",""images/Blue_Triangle.png""]","true","[[208,217],[163,6],[2,150]]","true",""
"html-keyboard-response","88","2.1.0","316672","78932","break","6063","<p>Great job so far! Please rest for a few seconds before continuing.</p>
                 <p>Press the <strong>I</strong> key on your keyboard to continue.</p>","i","","","","","","","","","","","","","","","","","I"
"visual-search-circle","89","2.2.0","320553","78932","visual_search_trial","2376","","f","","","","","","","","","","null","red_blue_mix","4","[""images/Red_Triangle.png"",""images/Red_Circle.png"",""images/Blue_Triangle.png"",""images/Red_Circle.png"",""images/Blue_Circle.png"",""images/Blue_Circle.png"",""images/Blue_Triangle.png"",""images/Blue_Triangle.png"",""images/Blue_Circle.png""]","true","[[232,60],[165,6],[80,8],[15,64],[2,148],[46,222],[127,249],[207,219],[248,144]]","true",""
"visual-search-circle","90","2.2.0","322678","78932","visual_search_trial","622","","j","","","","","","","","","","null","red_circle","4","[""images/Red_Circle.png"",""images/Red_Circle.png"",""images/Red_Circle.png"",""images/Red_Circle.png"",""images/Red_Circle.png"",""images/Red_Circle.png""]","true","[[228,194],[237,70],[133,0],[21,55],[12,179],[116,249]]","false",""
"visual-search-circle","91","2.2.0","324716","78932","visual_search_trial","532","","f","","","","","","","","","","null","blue_triangle","4","[""images/Red_Triangle.png"",""images/Blue_Triangle.png"",""images/Blue_Triangle.png"",""images/Blue_Triangle.png"",""images/Blue_Triangle.png"",""images/Blue_Triangle.png"",""images/Blue_Triangle.png"",""images/Blue_Triangle.png"",""images/Blue_Triangle.png""]","true","[[21,194],[90,245],[175,239],[237,179],[246,94],[198,23],[116,0],[38,35],[0,111]]","true",""
"visual-search-circle","92","2.2.0","326864","78932","visual_search_trial","644","","f","","","","","","","","","","null","red_blue_mix","4","[""images/Red_Triangle.png"",""images/Blue_Circle.png"",""images/Red_Circle.png""]","true","[[249,135],[72,11],[53,227]]","true",""
"visual-search-circle","93","2.2.0","329016","78932","visual_search_trial","648","","j","","","","","","","","","","null","blue_triangle","4","[""images/Blue_Triangle.png"",""images/Blue_Triangle.png"",""images/Blue_Triangle.png"",""images/Blue_Triangle.png"",""images/Blue_Triangle.png"",""images/Blue_Triangle.png"",""images/Blue_Triangle.png"",""images/Blue_Triangle.png"",""images/Blue_Triangle.png""]","true","[[191,231],[243,163],[240,78],[183,14],[99,2],[26,48],[0,129],[32,208],[107,248]]","false",""
"visual-search-circle","94","2.2.0","331019","78932","visual_search_trial","500","","f","","","","","","","","","","null","red_circle","4","[""images/Red_Triangle.png"",""images/Red_Circle.png"",""images/Red_Circle.png""]","true","[[118,0],[20,193],[236,181]]","true",""
"visual-search-circle","95","2.2.0","333055","78932","visual_search_trial","531","","f","","","","","","","","","","null","blue_triangle","4","[""images/Red_Triangle.png"",""images/Blue_Triangle.png"",""images/Blue_Triangle.png"",""images/Blue_Triangle.png"",""images/Blue_Triangle.png"",""images/Blue_Triangle.png""]","true","[[165,6],[42,30],[2,148],[84,243],[207,219],[247,101]]","true",""
"visual-search-circle","96","2.2.0","335075","78932","visual_search_trial","515","","f","","","","","","","","","","null","red_blue_mix","4","[""images/Red_Triangle.png"",""images/Red_Circle.png"",""images/Blue_Circle.png"",""images/Red_Circle.png"",""images/Blue_Circle.png"",""images/Blue_Triangle.png""]","true","[[22,53],[11,177],[114,249],[227,196],[238,72],[135,0]]","true",""
"visual-search-circle","97","2.2.0","337214","78932","visual_search_trial","636","","f","","","","","","","","","","null","blue_triangle","4","[""images/Red_Triangle.png"",""images/Blue_Triangle.png"",""images/Blue_Triangle.png""]","true","[[177,238],[196,22],[0,114]]","true",""
"visual-search-circle","98","2.2.0","339310","78932","visual_search_trial","591","","f","","","","","","","","","","null","red_circle","4","[""images/Red_Triangle.png"",""images/Red_Circle.png"",""images/Red_Circle.png"",""images/Red_Circle.png"",""images/Red_Circle.png"",""images/Red_Circle.png"",""images/Red_Circle.png"",""images/Red_Circle.png"",""images/Red_Circle.png""]","true","[[109,249],[193,229],[244,161],[240,76],[181,13],[96,3],[25,49],[0,131],[33,210]]","true",""
"visual-search-circle","99","2.2.0","341448","78932","visual_search_trial","635","","j","","","","","","","","","","null","blue_triangle","4","[""images/Blue_Triangle.png"",""images/Blue_Triangle.png"",""images/Blue_Triangle.png""]","true","[[185,15],[0,127],[189,232]]","false",""
"visual-search-circle","100","2.2.0","344163","78932","visual_search_trial","1211","","j","","","","","","","","","","null","red_blue_mix","4","[""images/Blue_Circle.png"",""images/Red_Circle.png"",""images/Blue_Triangle.png""]","true","[[231,58],[14,66],[129,249]]","false",""
"visual-search-circle","101","2.2.0","346270","78932","visual_search_trial","602","","j","","","","","","","","","","null","blue_triangle","4","[""images/Blue_Triangle.png"",""images/Blue_Triangle.png"",""images/Blue_Triangle.png"",""images/Blue_Triangle.png"",""images/Blue_Triangle.png"",""images/Blue_Triangle.png""]","true","[[163,243],[247,150],[208,32],[86,6],[2,99],[41,217]]","false",""
"visual-search-circle","102","2.2.0","348398","78932","visual_search_trial","624","","f","","","","","","","","","","null","red_circle","4","[""images/Red_Circle.png"",""images/Red_Circle.png"",""images/Red_Circle.png"",""images/Red_Circle.png"",""images/Red_Circle.png"",""images/Red_Circle.png"",""images/Red_Circle.png"",""images/Red_Circle.png"",""images/Red_Circle.png""]","false","[[4,159],[55,228],[138,249],[214,211],[249,133],[226,51],[155,3],[70,12],[10,74]]","false",""
"visual-search-circle","103","2.2.0","353252","78932","visual_search_trial","3349","","j","","","","","","","","","","null","red_blue_mix","4","[""images/Red_Circle.png"",""images/Red_Circle.png"",""images/Blue_Triangle.png"",""images/Blue_Triangle.png"",""images/Blue_Circle.png"",""images/Blue_Circle.png""]","true","[[217,41],[99,2],[6,86],[32,208],[150,247],[243,163]]","false",""
"visual-search-circle","104","2.2.0","355445","78932","visual_search_trial","689","","j","","","","","","","","","","null","red_circle","4","[""images/Red_Circle.png"",""images/Red_Circle.png"",""images/Red_Circle.png""]","true","[[20,193],[236,181],[118,0]]","false",""
"visual-search-circle","105","2.2.0","358233","78932","visual_search_trial","1284","","j","","","","","","","","","","null","red_blue_mix","4","[""images/Blue_Triangle.png"",""images/Blue_Circle.png"",""images/Blue_Circle.png"",""images/Red_Circle.png"",""images/Blue_Triangle.png"",""images/Blue_Circle.png"",""images/Red_Circle.png"",""images/Blue_Triangle.png"",""images/Blue_Circle.png""]","true","[[135,249],[213,213],[249,135],[227,53],[157,4],[72,11],[11,72],[4,157],[53,227]]","false",""
"visual-search-circle","106","2.2.0","360282","78932","visual_search_trial","544","","f","","","","","","","","","","null","red_circle","4","[""images/Red_Triangle.png"",""images/Red_Circle.png"",""images/Red_Circle.png"",""images/Red_Circle.png"",""images/Red_Circle.png"",""images/Red_Circle.png""]","true","[[88,5],[3,96],[39,216],[161,244],[246,153],[210,33]]","true",""
"visual-search-circle","107","2.2.0","362502","78932","visual_search_trial","717","","j","","","","","","","","","","null","red_circle","5","[""images/Red_Circle.png"",""images/Red_Circle.png"",""images/Red_Circle.png""]","true","[[140,0],[9,173],[224,200]]","false",""
"visual-search-circle","108","2.2.0","365433","78932","visual_search_trial","1426","","f","","","","","","","","","","null","red_blue_mix","5","[""images/Red_Triangle.png"",""images/Red_Circle.png"",""images/Blue_Triangle.png"",""images/Blue_Triangle.png"",""images/Red_Circle.png"",""images/Red_Circle.png""]","true","[[240,171],[223,48],[107,1],[9,78],[26,201],[142,248]]","true",""
"visual-search-circle","109","2.2.0","367577","78932","visual_search_trial","639","","f","","","","","","","","","","null","blue_triangle","5","[""images/Red_Triangle.png"",""images/Blue_Triangle.png"",""images/Blue_Triangle.png"",""images/Blue_Triangle.png"",""images/Blue_Triangle.png"",""images/Blue_Triangle.png"",""images/Blue_Triangle.png"",""images/Blue_Triangle.png"",""images/Blue_Triangle.png""]","true","[[219,207],[249,127],[222,46],[148,2],[64,15],[8,80],[6,165],[60,232],[144,248]]","true",""
"visual-search-circle","110","2.2.0","369947","78932","visual_search_trial","866","","f","","","","","","","","","","null","red_blue_mix","5","[""images/Red_Triangle.png"",""images/Red_Circle.png"",""images/Blue_Triangle.png""]","true","[[247,148],[84,6],[42,219]]","true",""
"visual-search-circle","111","2.2.0","372158","78932","visual_search_trial","706","","j","","","","","","","","","","null","blue_triangle","5","[""images/Blue_Triangle.png"",""images/Blue_Triangle.png"",""images/Blue_Triangle.png""]","true","[[0,138],[198,226],[175,10]]","false",""
"visual-search-circle","112","2.2.0","374252","78932","visual_search_trial","588","","f","","","","","","","","","","null","red_blue_mix","5","[""images/Red_Triangle.png"",""images/Red_Circle.png"",""images/Red_Circle.png"",""images/Blue_Triangle.png"",""images/Blue_Circle.png"",""images/Red_Circle.png"",""images/Red_Circle.png"",""images/Blue_Circle.png"",""images/Blue_Circle.png""]","true","[[201,223],[247,150],[235,66],[171,9],[86,6],[18,58],[1,142],[41,217],[120,249]]","true",""
"visual-search-circle","113","2.2.0","376327","78932","visual_search_trial","571","","f","","","","","","","","","","null","blue_triangle","5","[""images/Red_Triangle.png"",""images/Blue_Triangle.png"",""images/Blue_Triangle.png""]","true","[[35,38],[94,246],[245,90]]","true",""
"visual-search-circle","114","2.2.0","378366","78932","visual_search_trial","535","","f","","","","","","","","","","null","red_circle","5","[""images/Red_Triangle.png"",""images/Red_Circle.png"",""images/Red_Circle.png""]","true","[[74,239],[249,111],[51,23]]","true",""
"visual-search-circle","115","2.2.0","380625","78932","visual_search_trial","756","","j","","","","","","","","","","null","red_blue_mix","5","[""images/Red_Circle.png"",""images/Blue_Triangle.png"",""images/Red_Circle.png""]","true","[[15,185],[232,189],[127,0]]","false",""
"visual-search-circle","116","2.2.0","382659","78932","visual_search_trial","529","","f","","","","","","","","","","null","red_circle","5","[""images/Red_Triangle.png"",""images/Red_Circle.png"",""images/Red_Circle.png"",""images/Red_Circle.png"",""images/Red_Circle.png"",""images/Red_Circle.png""]","true","[[248,105],[169,8],[46,27],[1,144],[80,241],[203,222]]","true",""
"visual-search-circle","117","2.2.0","384819","78932","visual_search_trial","655","","j","","","","","","","","","","null","blue_triangle","5","[""images/Blue_Triangle.png"",""images/Blue_Triangle.png"",""images/Blue_Triangle.png"",""images/Blue_Triangle.png"",""images/Blue_Triangle.png"",""images/Blue_Triangle.png"",""images/Blue_Triangle.png"",""images/Blue_Triangle.png"",""images/Blue_Triangle.png""]","true","[[99,247],[183,235],[240,171],[243,86],[191,18],[107,1],[32,41],[0,120],[26,201]]","false",""
"visual-search-circle","118","2.2.0","386828","78932","visual_search_trial","504","","f","","","","","","","","","","null","red_circle","5","[""images/Red_Triangle.png"",""images/Red_Circle.png"",""images/Red_Circle.png"",""images/Red_Circle.png"",""images/Red_Circle.png"",""images/Red_Circle.png"",""images/Red_Circle.png"",""images/Red_Circle.png"",""images/Red_Circle.png""]","true","[[14,66],[2,150],[48,223],[129,249],[208,217],[248,142],[231,58],[163,6],[78,9]]","true",""
"visual-search-circle","119","2.2.0","389189","78932","visual_search_trial","857","","j","","","","","","","","","","null","red_blue_mix","5","[""images/Blue_Circle.png"",""images/Red_Circle.png"",""images/Blue_Triangle.png"",""images/Blue_Circle.png"",""images/Blue_Circle.png"",""images/Blue_Triangle.png""]","true","[[208,32],[86,6],[2,99],[41,217],[163,243],[247,150]]","false",""
"visual-search-circle","120","2.2.0","391528","78932","visual_search_trial","835","","j","","","","","","","","","","null","red_circle","5","[""images/Red_Circle.png"",""images/Red_Circle.png"",""images/Red_Circle.png"",""images/Red_Circle.png"",""images/Red_Circle.png"",""images/Red_Circle.png""]","true","[[30,207],[148,247],[243,165],[219,42],[101,2],[6,84]]","false",""
"visual-search-circle","121","2.2.0","393672","78932","visual_search_trial","640","","j","","","","","","","","","","null","blue_triangle","5","[""images/Blue_Triangle.png"",""images/Blue_Triangle.png"",""images/Blue_Triangle.png"",""images/Blue_Triangle.png"",""images/Blue_Triangle.png"",""images/Blue_Triangle.png""]","true","[[175,10],[51,23],[0,138],[74,239],[198,226],[249,111]]","false",""
"visual-search-circle","122","2.2.0","395855","78932","visual_search_trial","678","","j","","","","","","","","","","null","red_circle","5","[""images/Red_Circle.png"",""images/Red_Circle.png"",""images/Red_Circle.png"",""images/Red_Circle.png"",""images/Red_Circle.png"",""images/Red_Circle.png"",""images/Red_Circle.png"",""images/Red_Circle.png"",""images/Red_Circle.png""]","true","[[232,60],[165,6],[80,8],[15,64],[2,148],[46,222],[127,249],[207,219],[248,144]]","false",""
"visual-search-circle","123","2.2.0","398219","78932","visual_search_trial","859","","j","","","","","","","","","","null","red_blue_mix","5","[""images/Blue_Circle.png"",""images/Blue_Triangle.png"",""images/Blue_Circle.png"",""images/Blue_Triangle.png"",""images/Blue_Triangle.png"",""images/Blue_Circle.png"",""images/Blue_Circle.png"",""images/Red_Circle.png"",""images/Blue_Triangle.png""]","true","[[208,32],[129,0],[48,26],[2,99],[14,183],[78,240],[163,243],[231,191],[248,107]]","false",""
"visual-search-circle","124","2.2.0","400293","78932","visual_search_trial","570","","f","","","","","","","","","","null","blue_triangle","5","[""images/Red_Triangle.png"",""images/Blue_Triangle.png"",""images/Blue_Triangle.png"",""images/Blue_Triangle.png"",""images/Blue_Triangle.png"",""images/Blue_Triangle.png""]","true","[[15,185],[122,249],[232,189],[234,64],[127,0],[17,60]]","true",""
"html-keyboard-response","125","2.1.0","408442","78932","break","8147","<p>Great job so far! Please rest for a few seconds before continuing.</p>
                 <p>Press the <strong>W</strong> key on your keyboard to continue.</p>","w","","","","","","","","","","","","","","","","","W"
"visual-search-circle","126","2.2.0","411035","78932","visual_search_trial","1088","","j","","","","","","","","","","null","red_blue_mix","6","[""images/Blue_Triangle.png"",""images/Red_Circle.png"",""images/Red_Circle.png"",""images/Red_Circle.png"",""images/Blue_Circle.png"",""images/Blue_Triangle.png"",""images/Blue_Circle.png"",""images/Blue_Circle.png"",""images/Red_Circle.png""]","true","[[0,111],[21,194],[90,245],[175,239],[237,179],[246,94],[198,23],[116,0],[38,35]]","false",""
"visual-search-circle","127","2.2.0","413168","78932","visual_search_trial","627","","j","","","","","","","","","","null","blue_triangle","6","[""images/Blue_Triangle.png"",""images/Blue_Triangle.png"",""images/Blue_Triangle.png"",""images/Blue_Triangle.png"",""images/Blue_Triangle.png"",""images/Blue_Triangle.png"",""images/Blue_Triangle.png"",""images/Blue_Triangle.png"",""images/Blue_Triangle.png""]","true","[[159,245],[228,194],[249,111],[211,35],[133,0],[51,23],[3,94],[12,179],[74,239]]","false",""
"visual-search-circle","128","2.2.0","415244","78932","visual_search_trial","570","","f","","","","","","","","","","null","red_circle","6","[""images/Red_Triangle.png"",""images/Red_Circle.png"",""images/Red_Circle.png"",""images/Red_Circle.png"",""images/Red_Circle.png"",""images/Red_Circle.png"",""images/Red_Circle.png"",""images/Red_Circle.png"",""images/Red_Circle.png""]","true","[[240,78],[183,14],[99,2],[26,48],[0,129],[32,208],[107,248],[191,231],[243,163]]","true",""
"visual-search-circle","129","2.2.0","417434","78932","visual_search_trial","687","","f","","","","","","","","","","null","red_blue_mix","6","[""images/Red_Triangle.png"",""images/Blue_Triangle.png"",""images/Blue_Triangle.png""]","true","[[22,53],[114,249],[238,72]]","true",""
"visual-search-circle","130","2.2.0","419700","78932","visual_search_trial","761","","j","","","","","","","","","","null","blue_triangle","6","[""images/Blue_Triangle.png"",""images/Blue_Triangle.png"",""images/Blue_Triangle.png"",""images/Blue_Triangle.png"",""images/Blue_Triangle.png"",""images/Blue_Triangle.png""]","true","[[193,229],[249,118],[181,13],[56,20],[0,131],[68,236]]","false",""
"visual-search-circle","131","2.2.0","421844","78932","visual_search_trial","640","","f","","","","","","","","","","null","red_circle","6","[""images/Red_Triangle.png"",""images/Red_Circle.png"",""images/Red_Circle.png"",""images/Red_Circle.png"",""images/Red_Circle.png"",""images/Red_Circle.png""]","true","[[74,10],[0,111],[51,226],[175,239],[249,138],[198,23]]","true",""
"visual-search-circle","132","2.2.0","424060","78932","visual_search_trial","712","","f","","","","","","","","","","null","blue_triangle","6","[""images/Red_Triangle.png"",""images/Blue_Triangle.png"",""images/Blue_Triangle.png"",""images/Blue_Triangle.png"",""images/Blue_Triangle.png"",""images/Blue_Triangle.png""]","true","[[66,14],[0,120],[58,231],[183,235],[249,129],[191,18]]","true",""
"visual-search-circle","133","2.2.0","426294","78932","visual_search_trial","730","","f","","","","","","","","","","null","red_blue_mix","6","[""images/Red_Triangle.png"",""images/Blue_Circle.png"",""images/Red_Circle.png"",""images/Blue_Circle.png"",""images/Blue_Triangle.png"",""images/Red_Circle.png""]","true","[[220,205],[242,82],[146,1],[29,44],[7,167],[103,248]]","true",""
"visual-search-circle","134","2.2.0","429013","78932","visual_search_trial","1216","","f","","","","","","","","","","null","blue_triangle","6","[""images/Red_Triangle.png"",""images/Blue_Triangle.png"",""images/Blue_Triangle.png""]","true","[[183,235],[191,18],[0,120]]","true",""
"visual-search-circle","135","2.2.0","431510","78932","visual_search_trial","992","","f","","","","","","","","","","null","red_blue_mix","6","[""images/Red_Triangle.png"",""images/Blue_Circle.png"",""images/Red_Circle.png"",""images/Blue_Triangle.png"",""images/Blue_Circle.png"",""images/Blue_Triangle.png"",""images/Red_Circle.png"",""images/Red_Circle.png"",""images/Red_Circle.png""]","true","[[245,90],[194,21],[111,0],[35,38],[0,116],[23,198],[94,246],[179,237],[239,175]]","true",""
"visual-search-circle","136","2.2.0","433672","78932","visual_search_trial","657","","j","","","","","","","","","","null","red_circle","6","[""images/Red_Circle.png"",""images/Red_Circle.png"",""images/Red_Circle.png"",""images/Red_Circle.png"",""images/Red_Circle.png"",""images/Red_Circle.png"",""images/Red_Circle.png"",""images/Red_Circle.png"",""images/Red_Circle.png""]","true","[[228,194],[249,111],[211,35],[133,0],[51,23],[3,94],[12,179],[74,239],[159,245]]","false",""
"visual-search-circle","137","2.2.0","435829","78932","visual_search_trial","651","","f","","","","","","","","","","null","blue_triangle","6","[""images/Red_Triangle.png"",""images/Blue_Triangle.png"",""images/Blue_Triangle.png"",""images/Blue_Triangle.png"",""images/Blue_Triangle.png"",""images/Blue_Triangle.png"",""images/Blue_Triangle.png"",""images/Blue_Triangle.png"",""images/Blue_Triangle.png""]","true","[[198,23],[116,0],[38,35],[0,111],[21,194],[90,245],[175,239],[237,179],[246,94]]","true",""
"visual-search-circle","138","2.2.0","437858","78932","visual_search_trial","525","","j","","","","","","","","","","null","red_circle","6","[""images/Red_Circle.png"",""images/Red_Circle.png"",""images/Red_Circle.png"",""images/Red_Circle.png"",""images/Red_Circle.png"",""images/Red_Circle.png""]","true","[[167,7],[44,29],[1,146],[82,242],[205,220],[248,103]]","false",""
"visual-search-circle","139","2.2.0","440189","78932","visual_search_trial","827","","j","","","","","","","","","","null","red_blue_mix","6","[""images/Blue_Triangle.png"",""images/Blue_Circle.png"",""images/Blue_Triangle.png""]","true","[[94,3],[35,211],[245,159]]","false",""
"visual-search-circle","140","2.2.0","442279","78932","visual_search_trial","587","","f","","","","","","","","","","null","red_circle","6","[""images/Red_Triangle.png"",""images/Red_Circle.png"",""images/Red_Circle.png""]","true","[[222,203],[144,1],[8,169]]","true",""
"visual-search-circle","141","2.2.0","444571","78932","visual_search_trial","788","","j","","","","","","","","","","null","red_blue_mix","6","[""images/Blue_Circle.png"",""images/Blue_Circle.png"",""images/Blue_Triangle.png"",""images/Red_Circle.png"",""images/Blue_Triangle.png"",""images/Blue_Triangle.png""]","true","[[1,105],[46,222],[169,241],[248,144],[203,27],[80,8]]","false",""
"visual-search-circle","142","2.2.0","446783","78932","visual_search_trial","708","","f","","","","","","","","","","null","red_circle","6","[""images/Red_Circle.png"",""images/Red_Circle.png"",""images/Red_Circle.png""]","false","[[103,248],[242,82],[29,44]]","false",""
"visual-search-circle","143","2.2.0","449413","78932","visual_search_trial","1127","","j","","","","","","","","","","null","blue_triangle","6","[""images/Blue_Triangle.png"",""images/Blue_Triangle.png"",""images/Blue_Triangle.png""]","true","[[240,173],[109,0],[25,200]]","false",""
"visual-search-circle","144","2.2.0","452215","78932","visual_search_trial","1297","","j","","","","","","","","","","null","red_circle","7","[""images/Red_Circle.png"",""images/Red_Circle.png"",""images/Red_Circle.png"",""images/Red_Circle.png"",""images/Red_Circle.png"",""images/Red_Circle.png"",""images/Red_Circle.png"",""images/Red_Circle.png"",""images/Red_Circle.png""]","true","[[72,238],[157,245],[227,196],[249,114],[213,36],[135,0],[53,22],[4,92],[11,177]]","false",""
"visual-search-circle","145","2.2.0","455590","78932","visual_search_trial","1871","","j","","","","","","","","","","null","blue_triangle","7","[""images/Blue_Triangle.png"",""images/Blue_Triangle.png"",""images/Blue_Triangle.png"",""images/Blue_Triangle.png"",""images/Blue_Triangle.png"",""images/Blue_Triangle.png""]","true","[[44,29],[1,146],[82,242],[205,220],[248,103],[167,7]]","false",""
"visual-search-circle","146","2.2.0","457820","78932","visual_search_trial","727","","f","","","","","","","","","","null","red_circle","7","[""images/Red_Triangle.png"",""images/Red_Circle.png"",""images/Red_Circle.png"",""images/Red_Circle.png"",""images/Red_Circle.png"",""images/Red_Circle.png""]","true","[[248,142],[201,26],[78,9],[1,107],[48,223],[171,240]]","true",""
"visual-search-circle","147","2.2.0","460247","78932","visual_search_trial","921","","j","","","","","","","","","","null","red_blue_mix","7","[""images/Blue_Triangle.png"",""images/Red_Circle.png"",""images/Blue_Circle.png"",""images/Blue_Circle.png"",""images/Blue_Circle.png"",""images/Blue_Triangle.png"",""images/Red_Circle.png"",""images/Blue_Circle.png"",""images/Blue_Circle.png""]","true","[[105,248],[189,232],[243,165],[241,80],[185,15],[101,2],[27,46],[0,127],[30,207]]","false",""
"visual-search-circle","148","2.2.0","462341","78932","visual_search_trial","589","","f","","","","","","","","","","null","blue_triangle","7","[""images/Red_Triangle.png"",""images/Blue_Triangle.png"",""images/Blue_Triangle.png"",""images/Blue_Triangle.png"",""images/Blue_Triangle.png"",""images/Blue_Triangle.png"",""images/Blue_Triangle.png"",""images/Blue_Triangle.png"",""images/Blue_Triangle.png""]","true","[[74,10],[12,70],[3,155],[51,226],[133,249],[211,214],[249,138],[228,55],[159,4]]","true",""
"visual-search-circle","149","2.2.0","464649","78932","visual_search_trial","804","","j","","","","","","","","","","null","red_blue_mix","7","[""images/Blue_Circle.png"",""images/Red_Circle.png"",""images/Red_Circle.png""]","true","[[6,84],[148,247],[219,42]]","false",""
"visual-search-circle","150","2.2.0","466768","78932","visual_search_trial","614","","j","","","","","","","","","","null","red_circle","7","[""images/Red_Circle.png"",""images/Red_Circle.png"",""images/Red_Circle.png"",""images/Red_Circle.png"",""images/Red_Circle.png"",""images/Red_Circle.png""]","true","[[247,148],[207,30],[84,6],[2,101],[42,219],[165,243]]","false",""
"visual-search-circle","151","2.2.0","469025","78932","visual_search_trial","753","","j","","","","","","","","","","null","blue_triangle","7","[""images/Blue_Triangle.png"",""images/Blue_Triangle.png"",""images/Blue_Triangle.png""]","true","[[249,111],[51,23],[74,239]]","false",""
"visual-search-circle","152","2.2.0","471368","78932","visual_search_trial","840","","j","","","","","","","","","","null","red_blue_mix","7","[""images/Blue_Triangle.png"",""images/Blue_Circle.png"",""images/Blue_Triangle.png"",""images/Red_Circle.png"",""images/Blue_Circle.png"",""images/Blue_Circle.png""]","true","[[10,175],[111,249],[226,198],[239,74],[138,0],[23,51]]","false",""
"visual-search-circle","153","2.2.0","473464","78932","visual_search_trial","591","","j","","","","","","","","","","null","blue_triangle","7","[""images/Blue_Triangle.png"",""images/Blue_Triangle.png"",""images/Blue_Triangle.png"",""images/Blue_Triangle.png"",""images/Blue_Triangle.png"",""images/Blue_Triangle.png"",""images/Blue_Triangle.png"",""images/Blue_Triangle.png"",""images/Blue_Triangle.png""]","true","[[66,14],[9,78],[6,163],[58,231],[142,248],[217,208],[249,129],[223,48],[150,2]]","false",""
"visual-search-circle","154","2.2.0","475592","78932","visual_search_trial","623","","f","","","","","","","","","","null","red_circle","7","[""images/Red_Triangle.png"",""images/Red_Circle.png"",""images/Red_Circle.png"",""images/Red_Circle.png"",""images/Red_Circle.png"",""images/Red_Circle.png"",""images/Red_Circle.png"",""images/Red_Circle.png"",""images/Red_Circle.png""]","true","[[233,62],[167,7],[82,7],[16,62],[1,146],[44,220],[125,250],[205,220],[248,146]]","true",""
"visual-search-circle","155","2.2.0","477901","78932","visual_search_trial","806","","f","","","","","","","","","","null","red_blue_mix","7","[""images/Red_Triangle.png"",""images/Blue_Circle.png"",""images/Blue_Circle.png""]","true","[[203,222],[169,8],[1,144]]","true",""
"visual-search-circle","156","2.2.0","480385","78932","visual_search_trial","981","","f","","","","","","","","","","null","blue_triangle","7","[""images/Red_Triangle.png"",""images/Blue_Triangle.png"",""images/Blue_Triangle.png""]","true","[[6,165],[219,207],[148,2]]","true",""
"visual-search-circle","157","2.2.0","482484","78932","visual_search_trial","595","","f","","","","","","","","","","null","red_blue_mix","7","[""images/Red_Triangle.png"",""images/Red_Circle.png"",""images/Blue_Circle.png"",""images/Blue_Circle.png"",""images/Blue_Triangle.png"",""images/Blue_Circle.png""]","true","[[219,42],[101,2],[6,84],[30,207],[148,247],[243,165]]","true",""
"visual-search-circle","158","2.2.0","484647","78932","visual_search_trial","660","","f","","","","","","","","","","null","blue_triangle","7","[""images/Red_Triangle.png"",""images/Blue_Triangle.png"",""images/Blue_Triangle.png"",""images/Blue_Triangle.png"",""images/Blue_Triangle.png"",""images/Blue_Triangle.png""]","true","[[163,243],[247,150],[208,32],[86,6],[2,99],[41,217]]","true",""
"visual-search-circle","159","2.2.0","486865","78932","visual_search_trial","715","","f","","","","","","","","","","null","red_circle","7","[""images/Red_Triangle.png"",""images/Red_Circle.png"",""images/Red_Circle.png""]","true","[[17,189],[234,185],[122,0]]","true",""
"visual-search-circle","160","2.2.0","488956","78932","visual_search_trial","587","","f","","","","","","","","","","null","red_blue_mix","7","[""images/Red_Triangle.png"",""images/Blue_Circle.png"",""images/Blue_Triangle.png"",""images/Blue_Circle.png"",""images/Blue_Triangle.png"",""images/Blue_Triangle.png"",""images/Blue_Circle.png"",""images/Blue_Triangle.png"",""images/Blue_Circle.png""]","true","[[207,30],[127,0],[46,27],[2,101],[15,185],[80,241],[165,243],[232,189],[248,105]]","true",""
"visual-search-circle","161","2.2.0","491134","78932","visual_search_trial","675","","j","","","","","","","","","","null","red_circle","7","[""images/Red_Circle.png"",""images/Red_Circle.png"",""images/Red_Circle.png""]","true","[[223,48],[9,78],[142,248]]","false",""
"html-keyboard-response","162","2.1.0","497860","78932","break","6724","<p>Great job so far! Please rest for a few seconds before continuing.</p>
                 <p>Press the <strong>B</strong> key on your keyboard to continue.</p>","b","","","","","","","","","","","","","","","","","B"
"visual-search-circle","163","2.2.0","502541","78932","visual_search_trial","3177","","j","","","","","","","","","","null","red_circle","8","[""images/Red_Circle.png"",""images/Red_Circle.png"",""images/Red_Circle.png""]","true","[[16,187],[233,187],[125,0]]","false",""
"visual-search-circle","164","2.2.0","504931","78932","visual_search_trial","885","","j","","","","","","","","","","null","red_blue_mix","8","[""images/Blue_Triangle.png"",""images/Blue_Triangle.png"",""images/Blue_Circle.png"",""images/Blue_Circle.png"",""images/Blue_Triangle.png"",""images/Blue_Circle.png"",""images/Red_Circle.png"",""images/Blue_Circle.png"",""images/Blue_Circle.png""]","true","[[163,6],[78,9],[14,66],[2,150],[48,223],[129,249],[208,217],[248,142],[231,58]]","false",""
"visual-search-circle","165","2.2.0","507265","78932","visual_search_trial","830","","j","","","","","","","","","","null","blue_triangle","8","[""images/Blue_Triangle.png"",""images/Blue_Triangle.png"",""images/Blue_Triangle.png""]","true","[[0,127],[189,232],[185,15]]","false",""
"visual-search-circle","166","2.2.0","513193","78932","visual_search_trial","4423","","j","","","","","","","","","","null","red_circle","8","[""images/Red_Circle.png"",""images/Red_Circle.png"",""images/Red_Circle.png"",""images/Red_Circle.png"",""images/Red_Circle.png"",""images/Red_Circle.png"",""images/Red_Circle.png"",""images/Red_Circle.png"",""images/Red_Circle.png""]","true","[[26,201],[99,247],[183,235],[240,171],[243,86],[191,18],[107,1],[32,41],[0,120]]","false",""
"visual-search-circle","167","2.2.0","520845","78932","visual_search_trial","6149","","j","","","","","","","","","","null","red_blue_mix","8","[""images/Blue_Circle.png"",""images/Blue_Circle.png"",""images/Blue_Circle.png""]","true","[[146,248],[220,44],[7,82]]","false",""
"visual-search-circle","168","2.2.0","523264","78932","visual_search_trial","914","","f","","","","","","","","","","null","blue_triangle","8","[""images/Red_Triangle.png"",""images/Blue_Triangle.png"",""images/Blue_Triangle.png"",""images/Blue_Triangle.png"",""images/Blue_Triangle.png"",""images/Blue_Triangle.png"",""images/Blue_Triangle.png"",""images/Blue_Triangle.png"",""images/Blue_Triangle.png""]","true","[[2,101],[15,185],[80,241],[165,243],[232,189],[248,105],[207,30],[127,0],[46,27]]","true",""
"visual-search-circle","169","2.2.0","525358","78932","visual_search_trial","590","","f","","","","","","","","","","null","red_circle","8","[""images/Red_Triangle.png"",""images/Red_Circle.png"",""images/Red_Circle.png""]","true","[[66,14],[58,231],[249,129]]","true",""
"visual-search-circle","170","2.2.0","527662","78932","visual_search_trial","800","","f","","","","","","","","","","null","blue_triangle","8","[""images/Red_Triangle.png"",""images/Blue_Triangle.png"",""images/Blue_Triangle.png"",""images/Blue_Triangle.png"",""images/Blue_Triangle.png"",""images/Blue_Triangle.png""]","true","[[226,51],[111,0],[10,74],[23,198],[138,249],[239,175]]","true",""
"visual-search-circle","171","2.2.0","529844","78932","visual_search_trial","678","","f","","","","","","","","","","null","red_blue_mix","8","[""images/Red_Triangle.png"",""images/Blue_Triangle.png"",""images/Blue_Triangle.png"",""images/Blue_Triangle.png"",""images/Blue_Triangle.png"",""images/Blue_Triangle.png"",""images/Blue_Triangle.png"",""images/Blue_Circle.png"",""images/Blue_Circle.png""]","true","[[1,142],[41,217],[120,249],[201,223],[247,150],[235,66],[171,9],[86,6],[18,58]]","true",""
"visual-search-circle","172","2.2.0","531960","78932","visual_search_trial","612","","j","","","","","","","","","","null","red_circle","8","[""images/Red_Circle.png"",""images/Red_Circle.png"",""images/Red_Circle.png"",""images/Red_Circle.png"",""images/Red_Circle.png"",""images/Red_Circle.png""]","true","[[0,109],[49,224],[173,240],[249,140],[200,25],[76,9]]","false",""
"visual-search-circle","173","2.2.0","534352","78932","visual_search_trial","889","","f","","","","","","","","","","null","blue_triangle","8","[""images/Red_Triangle.png"",""images/Blue_Triangle.png"",""images/Blue_Triangle.png""]","true","[[60,232],[249,127],[64,15]]","true",""
"visual-search-circle","174","2.2.0","536453","78932","visual_search_trial","596","","f","","","","","","","","","","null","red_circle","8","[""images/Red_Triangle.png"",""images/Red_Circle.png"",""images/Red_Circle.png"",""images/Red_Circle.png"",""images/Red_Circle.png"",""images/Red_Circle.png"",""images/Red_Circle.png"",""images/Red_Circle.png"",""images/Red_Circle.png""]","true","[[146,1],[62,16],[7,82],[7,167],[62,233],[146,248],[220,205],[250,125],[220,44]]","true",""
"visual-search-circle","175","2.2.0","538933","78932","visual_search_trial","976","","j","","","","","","","","","","null","blue_triangle","8","[""images/Blue_Triangle.png"",""images/Blue_Triangle.png"",""images/Blue_Triangle.png"",""images/Blue_Triangle.png"",""images/Blue_Triangle.png"",""images/Blue_Triangle.png"",""images/Blue_Triangle.png"",""images/Blue_Triangle.png"",""images/Blue_Triangle.png""]","true","[[250,125],[220,44],[146,1],[62,16],[7,82],[7,167],[62,233],[146,248],[220,205]]","false",""
"visual-search-circle","176","2.2.0","541188","78932","visual_search_trial","752","","f","","","","","","","","","","null","red_blue_mix","8","[""images/Red_Triangle.png"",""images/Blue_Circle.png"",""images/Blue_Circle.png"",""images/Blue_Triangle.png"",""images/Blue_Circle.png"",""images/Red_Circle.png""]","true","[[177,238],[249,135],[196,22],[72,11],[0,114],[53,227]]","true",""
"visual-search-circle","177","2.2.0","543548","78932","visual_search_trial","856","","j","","","","","","","","","","null","blue_triangle","8","[""images/Blue_Triangle.png"",""images/Blue_Triangle.png"",""images/Blue_Triangle.png"",""images/Blue_Triangle.png"",""images/Blue_Triangle.png"",""images/Blue_Triangle.png""]","true","[[129,249],[235,183],[231,58],[120,0],[14,66],[18,191]]","false",""
"visual-search-circle","178","2.2.0","545734","78932","visual_search_trial","683","","f","","","","","","","","","","null","red_blue_mix","8","[""images/Red_Triangle.png"",""images/Blue_Triangle.png"",""images/Blue_Circle.png""]","true","[[133,0],[12,179],[228,194]]","true",""
"visual-search-circle","179","2.2.0","547926","78932","visual_search_trial","688","","f","","","","","","","","","","null","red_circle","8","[""images/Red_Triangle.png"",""images/Red_Circle.png"",""images/Red_Circle.png"",""images/Red_Circle.png"",""images/Red_Circle.png"",""images/Red_Circle.png""]","true","[[194,228],[249,116],[179,12],[55,21],[0,133],[70,237]]","true",""
"visual-search-circle","180","2.2.0","550359","78932","visual_search_trial","929","","j","","","","","","","","","","null","red_blue_mix","8","[""images/Red_Circle.png"",""images/Blue_Triangle.png"",""images/Blue_Circle.png"",""images/Blue_Circle.png"",""images/Blue_Circle.png"",""images/Blue_Circle.png""]","true","[[246,96],[161,5],[39,33],[3,153],[88,244],[210,216]]","false",""
"visual-search-circle","181","2.2.0","553872","78932","visual_search_trial","2009","","j","","","","","","","","","","null","blue_triangle","9","[""images/Blue_Triangle.png"",""images/Blue_Triangle.png"",""images/Blue_Triangle.png""]","true","[[155,3],[4,159],[214,211]]","false",""
"visual-search-circle","182","2.2.0","557003","78932","visual_search_trial","1627","","f","","","","","","","","","","null","red_blue_mix","9","[""images/Red_Triangle.png"",""images/Blue_Circle.png"",""images/Red_Circle.png"",""images/Red_Circle.png"",""images/Blue_Circle.png"",""images/Blue_Circle.png"",""images/Blue_Triangle.png"",""images/Blue_Circle.png"",""images/Red_Circle.png""]","true","[[82,7],[16,62],[1,146],[44,220],[125,250],[205,220],[248,146],[233,62],[167,7]]","true",""
"visual-search-circle","183","2.2.0","559316","78932","visual_search_trial","808","","j","","","","","","","","","","null","red_circle","9","[""images/Red_Circle.png"",""images/Red_Circle.png"",""images/Red_Circle.png"",""images/Red_Circle.png"",""images/Red_Circle.png"",""images/Red_Circle.png"",""images/Red_Circle.png"",""images/Red_Circle.png"",""images/Red_Circle.png""]","true","[[111,0],[35,38],[0,116],[23,198],[94,246],[179,237],[239,175],[245,90],[194,21]]","false",""
"visual-search-circle","184","2.2.0","562453","78932","visual_search_trial","1632","","j","","","","","","","","","","null","red_blue_mix","9","[""images/Blue_Circle.png"",""images/Red_Circle.png"",""images/Blue_Triangle.png"",""images/Blue_Circle.png"",""images/Blue_Triangle.png"",""images/Red_Circle.png"",""images/Blue_Triangle.png"",""images/Blue_Triangle.png"",""images/Blue_Triangle.png""]","true","[[201,223],[247,150],[235,66],[171,9],[86,6],[18,58],[1,142],[41,217],[120,249]]","false",""
"visual-search-circle","185","2.2.0","564668","78932","visual_search_trial","709","","j","","","","","","","","","","null","blue_triangle","9","[""images/Blue_Triangle.png"",""images/Blue_Triangle.png"",""images/Blue_Triangle.png"",""images/Blue_Triangle.png"",""images/Blue_Triangle.png"",""images/Blue_Triangle.png""]","true","[[1,144],[80,241],[203,222],[248,105],[169,8],[46,27]]","false",""
"visual-search-circle","186","2.2.0","566847","78932","visual_search_trial","674","","j","","","","","","","","","","null","red_circle","9","[""images/Red_Circle.png"",""images/Red_Circle.png"",""images/Red_Circle.png""]","true","[[9,78],[142,248],[223,48]]","false",""
"visual-search-circle","187","2.2.0","569057","78932","visual_search_trial","706","","j","","","","","","","","","","null","red_blue_mix","9","[""images/Blue_Circle.png"",""images/Red_Circle.png"",""images/Red_Circle.png"",""images/Blue_Circle.png"",""images/Red_Circle.png"",""images/Red_Circle.png""]","true","[[25,49],[9,173],[109,249],[224,200],[240,76],[140,0]]","false",""
"visual-search-circle","188","2.2.0","571155","78932","visual_search_trial","594","","f","","","","","","","","","","null","red_circle","9","[""images/Red_Triangle.png"",""images/Red_Circle.png"",""images/Red_Circle.png""]","true","[[133,0],[12,179],[228,194]]","true",""
"visual-search-circle","189","2.2.0","573363","78932","visual_search_trial","705","","f","","","","","","","","","","null","red_blue_mix","9","[""images/Red_Triangle.png"",""images/Red_Circle.png"",""images/Blue_Circle.png""]","true","[[1,142],[201,223],[171,9]]","true",""
"visual-search-circle","190","2.2.0","576040","78932","visual_search_trial","1171","","f","","","","","","","","","","null","red_circle","9","[""images/Red_Triangle.png"",""images/Red_Circle.png"",""images/Red_Circle.png"",""images/Red_Circle.png"",""images/Red_Circle.png"",""images/Red_Circle.png"",""images/Red_Circle.png"",""images/Red_Circle.png"",""images/Red_Circle.png""]","true","[[205,220],[248,146],[233,62],[167,7],[82,7],[16,62],[1,146],[44,220],[124,250]]","true",""
"visual-search-circle","191","2.2.0","578294","78932","visual_search_trial","749","","j","","","","","","","","","","null","blue_triangle","9","[""images/Blue_Triangle.png"",""images/Blue_Triangle.png"",""images/Blue_Triangle.png"",""images/Blue_Triangle.png"",""images/Blue_Triangle.png"",""images/Blue_Triangle.png"",""images/Blue_Triangle.png"",""images/Blue_Triangle.png"",""images/Blue_Triangle.png""]","true","[[1,144],[42,219],[122,249],[203,222],[247,148],[234,64],[169,8],[84,6],[17,60]]","false",""
"visual-search-circle","192","2.2.0","580554","78932","visual_search_trial","755","","j","","","","","","","","","","null","red_circle","9","[""images/Red_Circle.png"",""images/Red_Circle.png"",""images/Red_Circle.png"",""images/Red_Circle.png"",""images/Red_Circle.png"",""images/Red_Circle.png""]","true","[[23,198],[138,249],[239,175],[226,51],[111,0],[10,74]]","false",""
"visual-search-circle","193","2.2.0","582571","78932","visual_search_trial","513","","f","","","","","","","","","","null","red_blue_mix","9","[""images/Red_Triangle.png"",""images/Blue_Circle.png"",""images/Red_Circle.png"",""images/Red_Circle.png"",""images/Blue_Circle.png"",""images/Red_Circle.png""]","true","[[3,153],[88,244],[210,216],[246,96],[161,5],[39,33]]","true",""
"visual-search-circle","194","2.2.0","584751","78932","visual_search_trial","676","","f","","","","","","","","","","null","blue_triangle","9","[""images/Red_Triangle.png"",""images/Blue_Triangle.png"",""images/Blue_Triangle.png"",""images/Blue_Triangle.png"",""images/Blue_Triangle.png"",""images/Blue_Triangle.png""]","true","[[241,169],[222,46],[105,1],[8,80],[27,203],[144,248]]","true",""
"visual-search-circle","195","2.2.0","586943","78932","visual_search_trial","687","","f","","","","","","","","","","null","red_circle","9","[""images/Red_Triangle.png"",""images/Red_Circle.png"",""images/Red_Circle.png"",""images/Red_Circle.png"",""images/Red_Circle.png"",""images/Red_Circle.png""]","true","[[167,242],[248,146],[205,29],[82,7],[1,103],[44,220]]","true",""
"visual-search-circle","196","2.2.0","589242","78932","visual_search_trial","795","","f","","","","","","","","","","null","blue_triangle","9","[""images/Red_Triangle.png"",""images/Blue_Triangle.png"",""images/Blue_Triangle.png""]","true","[[44,29],[82,242],[248,103]]","true",""
"visual-search-circle","197","2.2.0","591635","78932","visual_search_trial","890","","j","","","","","","","","","","null","red_blue_mix","9","[""images/Blue_Triangle.png"",""images/Blue_Triangle.png"",""images/Red_Circle.png""]","true","[[249,140],[76,9],[49,224]]","false",""
"visual-search-circle","198","2.2.0","593769","78932","visual_search_trial","628","","f","","","","","","","","","","null","blue_triangle","9","[""images/Red_Triangle.png"",""images/Blue_Triangle.png"",""images/Blue_Triangle.png"",""images/Blue_Triangle.png"",""images/Blue_Triangle.png"",""images/Blue_Triangle.png"",""images/Blue_Triangle.png"",""images/Blue_Triangle.png"",""images/Blue_Triangle.png""]","true","[[3,155],[51,226],[133,249],[211,214],[249,138],[228,55],[159,4],[74,10],[12,70]]","true",""
"html-keyboard-response","199","2.1.0","596347","78932","break","2576","<p>Great job so far! Please rest for a few seconds before continuing.</p>
                 <p>Press the <strong>U</strong> key on your keyboard to continue.</p>","u","","","","","","","","","","","","","","","","","U"
"visual-search-circle","200","2.2.0","599841","78932","visual_search_trial","1989","","j","","","","","","","","","","null","red_blue_mix","10","[""images/Blue_Triangle.png"",""images/Red_Circle.png"",""images/Red_Circle.png"",""images/Blue_Triangle.png"",""images/Red_Circle.png"",""images/Red_Circle.png"",""images/Blue_Circle.png"",""images/Blue_Circle.png"",""images/Red_Circle.png""]","true","[[41,217],[120,249],[201,223],[247,150],[235,66],[171,9],[86,6],[18,58],[1,142]]","false",""
"visual-search-circle","201","2.2.0","601888","78932","visual_search_trial","543","","f","","","","","","","","","","null","blue_triangle","10","[""images/Red_Triangle.png"",""images/Blue_Triangle.png"",""images/Blue_Triangle.png""]","true","[[111,249],[239,74],[23,51]]","true",""
"visual-search-circle","202","2.2.0","604189","78932","visual_search_trial","797","","j","","","","","","","","","","null","red_circle","10","[""images/Red_Circle.png"",""images/Red_Circle.png"",""images/Red_Circle.png""]","true","[[30,207],[243,165],[101,2]]","false",""
"visual-search-circle","203","2.2.0","607697","78932","visual_search_trial","2005","","j","","","","","","","","","","null","red_blue_mix","10","[""images/Blue_Circle.png"",""images/Blue_Circle.png"",""images/Red_Circle.png""]","true","[[9,76],[140,249],[224,49]]","false",""
"visual-search-circle","204","2.2.0","609778","78932","visual_search_trial","577","","f","","","","","","","","","","null","blue_triangle","10","[""images/Red_Triangle.png"",""images/Blue_Triangle.png"",""images/Blue_Triangle.png"",""images/Blue_Triangle.png"",""images/Blue_Triangle.png"",""images/Blue_Triangle.png""]","true","[[155,246],[245,159],[214,38],[94,3],[4,90],[35,211]]","true",""
"visual-search-circle","205","2.2.0","611912","78932","visual_search_trial","629","","f","","","","","","","","","","null","red_circle","10","[""images/Red_Triangle.png"",""images/Red_Circle.png"",""images/Red_Circle.png"",""images/Red_Circle.png"",""images/Red_Circle.png"",""images/Red_Circle.png""]","true","[[4,92],[36,213],[157,245],[245,157],[213,36],[92,4]]","true",""
"visual-search-circle","206","2.2.0","614045","78932","visual_search_trial","628","","j","","","","","","","","","","null","blue_triangle","10","[""images/Blue_Triangle.png"",""images/Blue_Triangle.png"",""images/Blue_Triangle.png"",""images/Blue_Triangle.png"",""images/Blue_Triangle.png"",""images/Blue_Triangle.png"",""images/Blue_Triangle.png"",""images/Blue_Triangle.png"",""images/Blue_Triangle.png""]","true","[[235,183],[247,99],[201,26],[120,0],[41,32],[1,107],[18,191],[86,243],[171,240]]","false",""
"visual-search-circle","207","2.2.0","616042","78932","visual_search_trial","493","","f","","","","","","","","","","null","red_blue_mix","10","[""images/Red_Triangle.png"",""images/Blue_Circle.png"",""images/Blue_Circle.png""]","true","[[10,175],[226,198],[138,0]]","true",""
"visual-search-circle","208","2.2.0","618110","78932","visual_search_trial","563","","f","","","","","","","","","","null","red_circle","10","[""images/Red_Triangle.png"",""images/Red_Circle.png"",""images/Red_Circle.png"",""images/Red_Circle.png"",""images/Red_Circle.png"",""images/Red_Circle.png"",""images/Red_Circle.png"",""images/Red_Circle.png"",""images/Red_Circle.png""]","true","[[92,245],[177,238],[238,177],[245,92],[196,22],[114,0],[36,36],[0,114],[22,196]]","true",""
"visual-search-circle","209","2.2.0","621827","78932","visual_search_trial","2212","","f","","","","","","","","","","null","red_blue_mix","10","[""images/Red_Triangle.png"",""images/Red_Circle.png"",""images/Blue_Circle.png"",""images/Red_Circle.png"",""images/Red_Circle.png"",""images/Red_Circle.png"",""images/Red_Circle.png"",""images/Blue_Circle.png"",""images/Blue_Triangle.png""]","true","[[245,90],[194,21],[111,0],[35,38],[0,116],[23,198],[94,246],[179,237],[239,175]]","true",""
"visual-search-circle","210","2.2.0","624267","78932","visual_search_trial","935","","j","","","","","","","","","","null","red_circle","10","[""images/Red_Circle.png"",""images/Red_Circle.png"",""images/Red_Circle.png"",""images/Red_Circle.png"",""images/Red_Circle.png"",""images/Red_Circle.png""]","true","[[109,249],[224,200],[240,76],[140,0],[25,49],[9,173]]","false",""
"visual-search-circle","211","2.2.0","627207","78932","visual_search_trial","1436","","j","","","","","","","","","","null","blue_triangle","10","[""images/Blue_Triangle.png"",""images/Blue_Triangle.png"",""images/Blue_Triangle.png""]","true","[[235,183],[120,0],[18,191]]","false",""
"visual-search-circle","212","2.2.0","630288","78932","visual_search_trial","1576","","j","","","","","","","","","","null","red_blue_mix","10","[""images/Red_Circle.png"",""images/Blue_Circle.png"",""images/Blue_Triangle.png"",""images/Blue_Triangle.png"",""images/Blue_Circle.png"",""images/Red_Circle.png""]","true","[[0,135],[72,238],[196,227],[249,114],[177,11],[53,22]]","false",""
"visual-search-circle","213","2.2.0","632665","78932","visual_search_trial","871","","j","","","","","","","","","","null","red_circle","10","[""images/Red_Circle.png"",""images/Red_Circle.png"",""images/Red_Circle.png"",""images/Red_Circle.png"",""images/Red_Circle.png"",""images/Red_Circle.png"",""images/Red_Circle.png"",""images/Red_Circle.png"",""images/Red_Circle.png""]","true","[[42,30],[1,105],[17,189],[84,243],[169,241],[234,185],[247,101],[203,27],[122,0]]","false",""
"visual-search-circle","214","2.2.0","634786","78932","visual_search_trial","616","","j","","","","","","","","","","null","blue_triangle","10","[""images/Blue_Triangle.png"",""images/Blue_Triangle.png"",""images/Blue_Triangle.png"",""images/Blue_Triangle.png"",""images/Blue_Triangle.png"",""images/Blue_Triangle.png""]","true","[[161,5],[39,33],[3,153],[88,244],[210,216],[246,96]]","false",""
"visual-search-circle","215","2.2.0","636794","78932","visual_search_trial","505","","f","","","","","","","","","","null","red_circle","10","[""images/Red_Triangle.png"",""images/Red_Circle.png"",""images/Red_Circle.png""]","true","[[76,240],[249,109],[49,25]]","true",""
"visual-search-circle","216","2.2.0","639152","78932","visual_search_trial","854","","f","","","","","","","","","","null","red_blue_mix","10","[""images/Red_Triangle.png"",""images/Blue_Triangle.png"",""images/Red_Circle.png"",""images/Blue_Triangle.png"",""images/Blue_Triangle.png"",""images/Blue_Circle.png""]","true","[[194,21],[70,12],[0,116],[55,228],[179,237],[249,133]]","true",""
"visual-search-circle","217","2.2.0","641292","78932","visual_search_trial","634","","f","","","","","","","","","","null","blue_triangle","10","[""images/Red_Triangle.png"",""images/Blue_Triangle.png"",""images/Blue_Triangle.png"",""images/Blue_Triangle.png"",""images/Blue_Triangle.png"",""images/Blue_Triangle.png"",""images/Blue_Triangle.png"",""images/Blue_Triangle.png"",""images/Blue_Triangle.png""]","true","[[4,159],[55,228],[138,249],[214,211],[249,133],[226,51],[155,3],[70,12],[10,74]]","true",""
"visual-search-circle","218","2.2.0","643574","78932","visual_search_trial","778","","f","","","","","","","","","","null","blue_triangle","11","[""images/Red_Triangle.png"",""images/Blue_Triangle.png"",""images/Blue_Triangle.png"",""images/Blue_Triangle.png"",""images/Blue_Triangle.png"",""images/Blue_Triangle.png"",""images/Blue_Triangle.png"",""images/Blue_Triangle.png"",""images/Blue_Triangle.png""]","true","[[125,250],[205,220],[248,146],[233,62],[167,7],[82,7],[16,62],[1,146],[44,220]]","true",""
"visual-search-circle","219","2.2.0","645871","78932","visual_search_trial","794","","j","","","","","","","","","","null","red_blue_mix","11","[""images/Red_Circle.png"",""images/Blue_Triangle.png"",""images/Blue_Triangle.png""]","true","[[15,64],[127,249],[232,60]]","false",""
"visual-search-circle","220","2.2.0","647969","78932","visual_search_trial","593","","f","","","","","","","","","","null","red_circle","11","[""images/Red_Triangle.png"",""images/Red_Circle.png"",""images/Red_Circle.png"",""images/Red_Circle.png"",""images/Red_Circle.png"",""images/Red_Circle.png""]","true","[[249,127],[189,17],[64,15],[0,122],[60,232],[185,234]]","true",""
"visual-search-circle","221","2.2.0","650354","78932","visual_search_trial","880","","f","","","","","","","","","","null","red_blue_mix","11","[""images/Red_Triangle.png"",""images/Blue_Triangle.png"",""images/Red_Circle.png"",""images/Blue_Circle.png"",""images/Blue_Triangle.png"",""images/Blue_Triangle.png"",""images/Blue_Circle.png"",""images/Blue_Triangle.png"",""images/Red_Circle.png""]","true","[[21,194],[90,245],[175,239],[237,179],[246,94],[198,23],[116,0],[38,35],[0,111]]","true",""
"visual-search-circle","222","2.2.0","653370","78932","visual_search_trial","1510","","j","","","","","","","","","","null","blue_triangle","11","[""images/Blue_Triangle.png"",""images/Blue_Triangle.png"",""images/Blue_Triangle.png"",""images/Blue_Triangle.png"",""images/Blue_Triangle.png"",""images/Blue_Triangle.png""]","true","[[183,235],[249,129],[191,18],[66,14],[0,120],[58,231]]","false",""
"visual-search-circle","223","2.2.0","657391","78932","visual_search_trial","2517","","j","","","","","","","","","","null","red_circle","11","[""images/Red_Circle.png"",""images/Red_Circle.png"",""images/Red_Circle.png""]","true","[[27,203],[241,169],[105,1]]","false",""
"visual-search-circle","224","2.2.0","659748","78932","visual_search_trial","852","","j","","","","","","","","","","null","red_blue_mix","11","[""images/Blue_Triangle.png"",""images/Blue_Triangle.png"",""images/Blue_Circle.png"",""images/Blue_Circle.png"",""images/Blue_Circle.png"",""images/Red_Circle.png"",""images/Red_Circle.png"",""images/Blue_Circle.png"",""images/Blue_Circle.png""]","true","[[3,155],[51,226],[133,249],[211,214],[249,138],[228,55],[159,4],[74,10],[12,70]]","false",""
"visual-search-circle","225","2.2.0","661972","78932","visual_search_trial","719","","j","","","","","","","","","","null","red_circle","11","[""images/Red_Circle.png"",""images/Red_Circle.png"",""images/Red_Circle.png"",""images/Red_Circle.png"",""images/Red_Circle.png"",""images/Red_Circle.png""]","true","[[208,32],[86,6],[2,99],[41,217],[163,243],[247,150]]","false",""
"visual-search-circle","226","2.2.0","664144","78932","visual_search_trial","667","","j","","","","","","","","","","null","blue_triangle","11","[""images/Blue_Triangle.png"",""images/Blue_Triangle.png"",""images/Blue_Triangle.png"",""images/Blue_Triangle.png"",""images/Blue_Triangle.png"",""images/Blue_Triangle.png"",""images/Blue_Triangle.png"",""images/Blue_Triangle.png"",""images/Blue_Triangle.png""]","true","[[60,232],[144,248],[219,207],[249,127],[222,46],[148,2],[64,15],[8,80],[6,165]]","false",""
"visual-search-circle","227","2.2.0","666265","78932","visual_search_trial","616","","f","","","","","","","","","","null","red_blue_mix","11","[""images/Red_Triangle.png"",""images/Blue_Circle.png"",""images/Red_Circle.png"",""images/Red_Circle.png"",""images/Red_Circle.png"",""images/Blue_Triangle.png""]","true","[[249,127],[189,17],[64,15],[0,122],[60,232],[185,234]]","true",""
"visual-search-circle","228","2.2.0","668436","78932","visual_search_trial","666","","j","","","","","","","","","","null","blue_triangle","11","[""images/Blue_Triangle.png"",""images/Blue_Triangle.png"",""images/Blue_Triangle.png""]","true","[[11,72],[135,249],[227,53]]","false",""
"visual-search-circle","229","2.2.0","670658","78932","visual_search_trial","716","","f","","","","","","","","","","null","red_circle","11","[""images/Red_Triangle.png"",""images/Red_Circle.png"",""images/Red_Circle.png"",""images/Red_Circle.png"",""images/Red_Circle.png"",""images/Red_Circle.png"",""images/Red_Circle.png"",""images/Red_Circle.png"",""images/Red_Circle.png""]","true","[[198,226],[246,155],[237,70],[175,10],[90,4],[21,55],[0,138],[38,214],[116,249]]","true",""
"visual-search-circle","230","2.2.0","672760","78932","visual_search_trial","600","","f","","","","","","","","","","null","red_blue_mix","11","[""images/Red_Triangle.png"",""images/Blue_Triangle.png"",""images/Red_Circle.png""]","true","[[127,249],[232,60],[15,64]]","true",""
"visual-search-circle","231","2.2.0","674975","78932","visual_search_trial","710","","j","","","","","","","","","","null","red_circle","11","[""images/Red_Circle.png"",""images/Red_Circle.png"",""images/Red_Circle.png"",""images/Red_Circle.png"",""images/Red_Circle.png"",""images/Red_Circle.png"",""images/Red_Circle.png"",""images/Red_Circle.png"",""images/Red_Circle.png""]","true","[[232,60],[165,6],[80,8],[15,64],[2,148],[46,222],[127,249],[207,219],[248,144]]","false",""
"visual-search-circle","232","2.2.0","677352","78932","visual_search_trial","874","","j","","","","","","","","","","null","red_blue_mix","11","[""images/Blue_Triangle.png"",""images/Blue_Triangle.png"",""images/Red_Circle.png"",""images/Blue_Triangle.png"",""images/Blue_Circle.png"",""images/Blue_Triangle.png""]","true","[[105,248],[222,203],[241,80],[144,1],[27,46],[8,169]]","false",""
"visual-search-circle","233","2.2.0","679485","78932","visual_search_trial","629","","f","","","","","","","","","","null","blue_triangle","11","[""images/Red_Triangle.png"",""images/Blue_Triangle.png"",""images/Blue_Triangle.png""]","true","[[133,0],[12,179],[228,194]]","true",""
"visual-search-circle","234","2.2.0","681642","78932","visual_search_trial","653","","f","","","","","","","","","","null","red_circle","11","[""images/Red_Triangle.png"",""images/Red_Circle.png"",""images/Red_Circle.png""]","true","[[249,118],[56,20],[68,236]]","true",""
