"trial_type","trial_index","plugin_version","time_elapsed","sona_id","phase","rt","stimulus","response","consented","required_key","view_history","question_order","success","timeout","failed_images","failed_audio","failed_video","set_size","distractor_type","block","stimuli_list","correct","locations","target_present","break_key"
"pavlovia","0","null","1066","79161","","","","","","","","","","","","","","","","","","","","",""
"html-button-response","1","2.1.0","8029","79161","informed_consent","6960","
    <div style=""max-width: 900px; margin: 0 auto; padding: 20px; text-align: left; line-height: 1.6;"">
      <h1 style=""text-align: center; color: #333; font-size: 24px; margin-bottom: 10px; font-weight: bold;"">
        INFORMED CONSENT INFORMATION
      </h1>
      <h2 style=""text-align: center; color: #333; font-size: 22px; margin-bottom: 20px; font-weight: bold;"">
        FOR RESEARCH PARTICIPATION
      </h2>
      
      <p style=""margin-bottom: 10px;""><strong>Study Title:</strong> The Effects of Mindfulness and Attention on Life Satisfaction and Memory</p>
      <p style=""margin-bottom: 10px;""><strong>Principal Investigator:</strong> Ella Bremmer</p>
      <p style=""margin-bottom: 10px;""><strong>Co-Principal Investigator:</strong> Dr. Gregory Cox</p>
      <p style=""margin-bottom: 20px;""><strong>IRB Study Number:</strong></p>

      <p style=""margin-bottom: 15px;"">I am a student at the University at Albany, in the Department of Psychology. I am planning to conduct a research study, which I invite you to take part in.</p>
      
      <p style=""margin-bottom: 25px;"">This form has important information about the reasons for doing this study, what we will ask you to do, and the way we would like to use the information we collect about you.</p>

      <h3 style=""color: #333; font-size: 18px; margin-top: 25px; margin-bottom: 10px; font-weight: bold;"">
        Why are you doing this study?
      </h3>
      <p style=""margin-bottom: 15px;"">You are being asked to participate in a research study that aims to understand if there is a relationship between mindfulness, the ability to pay attention, and life satisfaction.</p>
      
      <p style=""margin-bottom: 25px;"">The purpose of this study is to investigate if having better control over one's attention influences overall life satisfaction. Your participation will help us better understand if mindfulness and attention do have a significant effect on life satisfaction (i.e., how people feel about their lives overall). Then you will be asked to perform a conjunction visual search task to test your capacity to direct your attention over a sustained period.</p>

      <h3 style=""color: #333; font-size: 18px; margin-top: 25px; margin-bottom: 10px; font-weight: bold;"">
        Why am I eligible to participate in this study?
      </h3>
      <p style=""margin-bottom: 25px;"">You are eligible to participate because you are a student at UAlbany, are at least 18 years old, and are proficient in English.</p>

      <h3 style=""color: #333; font-size: 18px; margin-top: 25px; margin-bottom: 10px; font-weight: bold;"">
        What will I do if I choose to be in this study?
      </h3>
      <p style=""margin-bottom: 10px;"">If you choose to take part in our study, you will do the following:</p>
      <p style=""margin-bottom: 8px; margin-left: 20px;"">1. Read and agree to the informed consent.</p>
      <p style=""margin-bottom: 8px; margin-left: 40px;"">a. If you choose not to agree to the informed consent, you will be taken back to the SONA site.</p>
      <p style=""margin-bottom: 8px; margin-left: 20px;"">2. Complete a demographic questionnaire that asks about your age, English proficiency, gender, and race.</p>
      <p style=""margin-bottom: 8px; margin-left: 20px;"">3. Read instructions for the visual search task, which asks you to indicate if a target (a red triangle) is present among various other colored shapes. You should press the ""F"" key if a red triangle is present, or the ""J"" key if the target is absent.</p>
      <p style=""margin-bottom: 8px; margin-left: 20px;"">4. You will be asked to respond to 270 visual search trials, whith the opportunity to take short breaks as you go</p>
      <p style=""margin-bottom: 8px; margin-left: 20px;"">5. You will complete the Mindfulness Attention Awareness Scale (MAAS), the Satisfaction With Life Scale (SWLS), and the Big Five Inventory.</p>
      <p style=""margin-bottom: 25px; margin-left: 20px;"">6.	After all questionnaires are completed, participants will be thanked for their time and will be provided the study debriefing. Following the debriefing, you will be sent back to the SONA research site.</p>

      <h3 style=""color: #333; font-size: 18px; margin-top: 25px; margin-bottom: 10px; font-weight: bold;"">
        For how long will I participate?
      </h3>
      <p style=""margin-bottom: 25px;"">This study is a single online session that you can complete on a computer. The study can be completed in less than 30 minutes but could require as long as 45 minutes to complete.</p>

      <h3 style=""color: #333; font-size: 18px; margin-top: 25px; margin-bottom: 10px; font-weight: bold;"">
        Where will I need to go to participate?
      </h3>
      <p style=""margin-bottom: 25px;"">All study procedures will take place online and can be completed wherever you have internet connection.</p>

      <h3 style=""color: #333; font-size: 18px; margin-top: 25px; margin-bottom: 10px; font-weight: bold;"">
        Are there any costs I should be aware of?
      </h3>
      <p style=""margin-bottom: 25px;"">Participation is not expected to incur cost to participants. Free internet access is available anywhere on campus and in the university library.</p>

      <h3 style=""color: #333; font-size: 18px; margin-top: 25px; margin-bottom: 10px; font-weight: bold;"">
        What are the possible risks or discomforts?
      </h3>
      <p style=""margin-bottom: 15px;"">As with all research, there is a chance that confidentiality of the information we collect from you could be breached – we will take steps to minimize this risk, as discussed in more detail below.</p>
      
      <p style=""margin-bottom: 25px;"">The risks associated with participating in this study are minimal; however, you may experience mild discomfort when reflecting on your mindfulness or life satisfaction when answering questionnaires in the study. To help minimize this, you can withdraw from the study at any time without any consequences. The study will take place online, and you will have the opportunity to take breaks while completing the survey to reduce the risk of eye strain associated with the use of electronic devices.</p>

      <h3 style=""color: #333; font-size: 18px; margin-top: 25px; margin-bottom: 10px; font-weight: bold;"">
        What are the possible benefits for me or others?
      </h3>
      <p style=""margin-bottom: 25px;"">While there are no direct personal benefits to participants of this study, you may find value in reflecting on your mindfulness, attention, and its impact on life satisfaction by completing this survey. The data you contribute may help advance society's understanding of how mindfulness and attention relate to overall well-being, potentially informing future programs or interventions aimed at improving student mental health, attention, and life satisfaction.</p>

      <h3 style=""color: #333; font-size: 18px; margin-top: 25px; margin-bottom: 10px; font-weight: bold;"">
        Will I receive compensation for my participation?
      </h3>
      <p style=""margin-bottom: 25px;"">SONA partial class credit will be awarded via the Psychology Department SONA research pool after you complete the survey in its entirety. Participants who withdraw before completing the survey will not receive partial credit. You will not receive monetary compensation for your participation in this study.</p>

      <h3 style=""color: #333; font-size: 18px; margin-top: 25px; margin-bottom: 10px; font-weight: bold;"">
        How will you protect the information you collect about me, and how will that information be shared?
      </h3>
      <p style=""margin-bottom: 15px;"">Results of this study may be used in publications and presentations. Your data will be handled as confidentially as possible, and no identifiable information will be collected to link your data back to you. If results of this study are published or presented, only de-identified summaries of data will be used.</p>
      
      <p style=""margin-bottom: 25px;"">To minimize the risks to confidentiality, all data will be collected anonymously via Pavlovia.org which uses encryption to protect information (https://pavlovia.org/docs/home/ethics). Only the student researcher (Ella Bremmer), mentor (Pierce Johnson), and faculty advisor (Gregory Cox) will have password-protected access to the data. Data will be stored on secure, university approved computers.</p>

      <h3 style=""color: #333; font-size: 18px; margin-top: 25px; margin-bottom: 10px; font-weight: bold;"">
        Will my data be used in future research?
      </h3>
      <p style=""margin-bottom: 25px;"">No personal identifiers will be collected in the data you provide us. Data will not be used in future research, and will be deleted after the required retention period.</p>

      <h3 style=""color: #333; font-size: 18px; margin-top: 25px; margin-bottom: 10px; font-weight: bold;"">
        What are my rights as a research participant?
      </h3>
      <p style=""margin-bottom: 15px;"">Participation in this study is voluntary. You do not have to answer any question you do not want to answer. If at any time and for any reason, you would prefer not to participate in this study, please feel free not to. If at any time you would like to stop participating, you are welcome to stop. You can take a break or stop altogether. You may withdraw from this study at any time, and you will not be penalized in any way for deciding to stop participation.</p>
      
      <p style=""margin-bottom: 25px;"">If you decide to withdraw from this study, any information collected from you before withdrawing will not be used, and your data will be deleted.</p>

      <h3 style=""color: #333; font-size: 18px; margin-top: 25px; margin-bottom: 10px; font-weight: bold;"">
        What if I am a University at Albany student or employee?
      </h3>
      <p style=""margin-bottom: 25px;"">You may choose not to participate or to stop participating in this research at any time. This will not affect your class standing, grades, employment, or any other aspects of your relationship with the University at Albany.</p>

      <h3 style=""color: #333; font-size: 18px; margin-top: 25px; margin-bottom: 10px; font-weight: bold;"">
        Who can I contact if I have questions or concerns about this research study?
      </h3>
      <p style=""margin-bottom: 15px;"">If you have questions, please feel free to stop and email the investigator, Ella Bremmer (ebremmer@albany.edu) or advisors, Pierce Johnson (pjohnson4@albany.edu) and Dr. Greg Cox (gecox@albany.edu). If you have questions later, you may also contact the researchers.</p>
      
      <p style=""margin-bottom: 10px;"">If you have any questions about your rights as a participant in this research, you can contact the following office at the University at Albany:</p>
      
      <p style=""margin-bottom: 5px; margin-left: 20px;"">Institutional Review Board</p>
      <p style=""margin-bottom: 5px; margin-left: 20px;"">University at Albany</p>
      <p style=""margin-bottom: 5px; margin-left: 20px;"">Office of Regulatory and Research Compliance</p>
      <p style=""margin-bottom: 5px; margin-left: 20px;"">1400 Washington Ave, Biology 227</p>
      <p style=""margin-bottom: 5px; margin-left: 20px;"">Albany, NY 12222</p>
      <p style=""margin-bottom: 5px; margin-left: 20px;"">Phone: 1-866-857-5459</p>
      <p style=""margin-bottom: 25px; margin-left: 20px;"">Email: rco@albany.edu</p>

      <h3 style=""color: #333; font-size: 18px; margin-top: 30px; margin-bottom: 10px; font-weight: bold;"">
        Consent
      </h3>
      <p style=""margin-bottom: 20px;"">I have read this form and the research study has been explained to me. I have been given the opportunity to ask questions and my questions have been answered. If I have additional questions, I have been told whom to contact. I agree to participate in the research study described above. I understand that I have the opportunity to download and save a copy of this form for my records.</p>

      <div style=""background-color: #f9f9f9; border: 2px solid #4CAF50; border-radius: 5px; padding: 20px; margin-top: 20px; margin-bottom: 20px;"">
        <p style=""margin-bottom: 15px; font-weight: bold;"">To save a copy of this consent form for your records, press Ctrl+P (Windows/Linux) or Cmd+P (Mac) and select ""Save as PDF"".</p>
        <p style=""margin-bottom: 0; font-weight: bold;"">By clicking ""I Agree"" below, I confirm that I agree to participate in the research study described above, and that doing so serves as my written signature consenting to take part in the study.</p>
      </div>
    </div>
  ","0","true","","","","","","","","","","","","","","","",""
"instructions","3","2.1.0","10462","79161","intro_instructions","2431","","","","j","[{""page_index"":0,""viewing_time"":2431}]","","","","","","","","","","","","","",""
"html-keyboard-response","4","2.1.0","12466","79161","intermediate_slide_demo","null","<p style=""font-size:4vw"">Demographic Questionnaire</p>","null","","","","","","","","","","","","","","","","",""
"survey-multi-choice","5","2.1.0","15770","79161","demographics_english","3302","","{""english"":""Strongly agree""}","","","","[0]","","","","","","","","","","","","",""
"survey-text","7","2.1.0","18439","79161","demographics_age","2666","","{""age"":""20""}","","","","","","","","","","","","","","","","",""
"survey-multi-select","9","2.1.0","20784","79161","demographics_gender","2342","","{""gender"":[""Woman""]}","","","","[0]","","","","","","","","","","","","",""
"survey-multi-choice","11","2.1.0","23195","79161","demographics_race","2410","","{""race"":""White or Caucasian""}","","","","[0]","","","","","","","","","","","","",""
"html-keyboard-response","12","2.1.0","25198","79161","intermediate_slide_VS","null","<p style=""font-size:4vw"">Visual Search Task</p>","null","","","","","","","","","","","","","","","","",""
"preload","13","2.1.0","25421","79161","image_preload","","","","","","","","true","false","[]","[]","[]","","","","","","","",""
"html-button-response","14","2.1.0","37023","79161","vs_instructions","11601","<p>On the following screens, you will see a series of colored shapes (triangles, squares, and circles) appear.</p>
    <p>Please Press 'F' if there <strong>is</strong> a red triangle among the shapes you see.</p>
    <p>Press 'J' if there is <strong>not</strong> a red triangle among the shapes you see.</p>","0","","","","","","","","","","","","","","","","",""
"visual-search-circle","15","2.2.0","40901","79161","visual_search_trial","2371","","f","","","","","","","","","","null","blue_triangle","0","[""images/Red_Triangle.png"",""images/Blue_Triangle.png"",""images/Blue_Triangle.png"",""images/Blue_Triangle.png"",""images/Blue_Triangle.png"",""images/Blue_Triangle.png"",""images/Blue_Triangle.png"",""images/Blue_Triangle.png"",""images/Blue_Triangle.png""]","true","[[234,64],[169,8],[84,6],[17,60],[1,144],[42,219],[122,249],[203,222],[247,148]]","true",""
"visual-search-circle","16","2.2.0","44217","79161","visual_search_trial","1812","","j","","","","","","","","","","null","red_blue_mix","0","[""images/Red_Circle.png"",""images/Blue_Triangle.png"",""images/Blue_Circle.png""]","true","[[51,23],[74,239],[249,111]]","false",""
"visual-search-circle","17","2.2.0","46778","79161","visual_search_trial","1057","","f","","","","","","","","","","null","red_circle","0","[""images/Red_Triangle.png"",""images/Red_Circle.png"",""images/Red_Circle.png"",""images/Red_Circle.png"",""images/Red_Circle.png"",""images/Red_Circle.png"",""images/Red_Circle.png"",""images/Red_Circle.png"",""images/Red_Circle.png""]","true","[[228,55],[159,4],[74,10],[12,70],[3,155],[51,226],[133,249],[211,214],[249,138]]","true",""
"visual-search-circle","18","2.2.0","49833","79161","visual_search_trial","1550","","j","","","","","","","","","","null","red_blue_mix","0","[""images/Blue_Triangle.png"",""images/Red_Circle.png"",""images/Red_Circle.png"",""images/Red_Circle.png"",""images/Blue_Triangle.png"",""images/Red_Circle.png""]","true","[[26,48],[9,171],[107,248],[223,201],[240,78],[142,1]]","false",""
"visual-search-circle","19","2.2.0","53606","79161","visual_search_trial","2268","","j","","","","","","","","","","null","red_circle","0","[""images/Red_Circle.png"",""images/Red_Circle.png"",""images/Red_Circle.png"",""images/Red_Circle.png"",""images/Red_Circle.png"",""images/Red_Circle.png""]","true","[[4,90],[35,211],[155,246],[245,159],[214,38],[94,3]]","false",""
"visual-search-circle","20","2.2.0","55929","79161","visual_search_trial","820","","f","","","","","","","","","","null","red_blue_mix","0","[""images/Red_Triangle.png"",""images/Red_Circle.png"",""images/Red_Circle.png""]","true","[[219,207],[148,2],[6,165]]","true",""
"visual-search-circle","21","2.2.0","58707","79161","visual_search_trial","1273","","j","","","","","","","","","","null","red_circle","0","[""images/Red_Circle.png"",""images/Red_Circle.png"",""images/Red_Circle.png"",""images/Red_Circle.png"",""images/Red_Circle.png"",""images/Red_Circle.png"",""images/Red_Circle.png"",""images/Red_Circle.png"",""images/Red_Circle.png""]","true","[[0,133],[35,211],[111,249],[194,228],[245,159],[239,74],[179,12],[94,3],[23,51]]","false",""
"visual-search-circle","22","2.2.0","61278","79161","visual_search_trial","1069","","f","","","","","","","","","","null","blue_triangle","0","[""images/Red_Triangle.png"",""images/Blue_Triangle.png"",""images/Blue_Triangle.png""]","true","[[165,243],[207,30],[2,101]]","true",""
"visual-search-circle","23","2.2.0","64557","79161","visual_search_trial","1772","","f","","","","","","","","","","null","red_blue_mix","0","[""images/Red_Triangle.png"",""images/Blue_Triangle.png"",""images/Red_Circle.png"",""images/Blue_Triangle.png"",""images/Blue_Circle.png"",""images/Blue_Circle.png"",""images/Blue_Circle.png"",""images/Red_Circle.png"",""images/Red_Circle.png""]","true","[[167,7],[82,7],[16,62],[1,146],[44,220],[125,250],[205,220],[248,146],[233,62]]","true",""
"visual-search-circle","24","2.2.0","67545","79161","visual_search_trial","1484","","f","","","","","","","","","","null","blue_triangle","0","[""images/Red_Triangle.png"",""images/Blue_Triangle.png"",""images/Blue_Triangle.png"",""images/Blue_Triangle.png"",""images/Blue_Triangle.png"",""images/Blue_Triangle.png""]","true","[[239,74],[138,0],[23,51],[10,175],[111,249],[226,198]]","true",""
"visual-search-circle","25","2.2.0","69752","79161","visual_search_trial","703","","f","","","","","","","","","","null","red_circle","0","[""images/Red_Triangle.png"",""images/Red_Circle.png"",""images/Red_Circle.png""]","true","[[246,153],[88,5],[39,216]]","true",""
"visual-search-circle","26","2.2.0","72524","79161","visual_search_trial","1267","","j","","","","","","","","","","null","red_blue_mix","0","[""images/Blue_Triangle.png"",""images/Red_Circle.png"",""images/Blue_Circle.png"",""images/Blue_Triangle.png"",""images/Blue_Circle.png"",""images/Red_Circle.png"",""images/Blue_Circle.png"",""images/Red_Circle.png"",""images/Red_Circle.png""]","true","[[11,72],[4,157],[53,227],[135,249],[213,213],[249,135],[227,53],[157,4],[72,11]]","false",""
"visual-search-circle","27","2.2.0","75246","79161","visual_search_trial","1216","","j","","","","","","","","","","null","blue_triangle","0","[""images/Blue_Triangle.png"",""images/Blue_Triangle.png"",""images/Blue_Triangle.png"",""images/Blue_Triangle.png"",""images/Blue_Triangle.png"",""images/Blue_Triangle.png"",""images/Blue_Triangle.png"",""images/Blue_Triangle.png"",""images/Blue_Triangle.png""]","true","[[140,249],[216,210],[249,131],[224,49],[153,3],[68,13],[9,76],[5,161],[56,229]]","false",""
"visual-search-circle","28","2.2.0","77712","79161","visual_search_trial","962","","f","","","","","","","","","","null","red_blue_mix","0","[""images/Red_Triangle.png"",""images/Red_Circle.png"",""images/Blue_Circle.png"",""images/Red_Circle.png"",""images/Red_Circle.png"",""images/Blue_Triangle.png""]","true","[[229,56],[118,0],[13,68],[20,193],[131,249],[236,181]]","true",""
"visual-search-circle","29","2.2.0","79843","79161","visual_search_trial","627","","f","","","","","","","","","","null","red_circle","0","[""images/Red_Triangle.png"",""images/Red_Circle.png"",""images/Red_Circle.png"",""images/Red_Circle.png"",""images/Red_Circle.png"",""images/Red_Circle.png""]","true","[[217,41],[99,2],[6,86],[32,208],[150,247],[243,163]]","true",""
"visual-search-circle","30","2.2.0","82021","79161","visual_search_trial","674","","j","","","","","","","","","","null","blue_triangle","0","[""images/Blue_Triangle.png"",""images/Blue_Triangle.png"",""images/Blue_Triangle.png""]","true","[[245,159],[94,3],[35,211]]","false",""
"visual-search-circle","31","2.2.0","84971","79161","visual_search_trial","1447","","j","","","","","","","","","","null","red_circle","0","[""images/Red_Circle.png"",""images/Red_Circle.png"",""images/Red_Circle.png""]","true","[[249,138],[74,10],[51,226]]","false",""
"visual-search-circle","32","2.2.0","87155","79161","visual_search_trial","680","","j","","","","","","","","","","null","blue_triangle","0","[""images/Blue_Triangle.png"",""images/Blue_Triangle.png"",""images/Blue_Triangle.png"",""images/Blue_Triangle.png"",""images/Blue_Triangle.png"",""images/Blue_Triangle.png""]","true","[[23,51],[10,175],[111,249],[226,198],[239,74],[138,0]]","false",""
"visual-search-circle","33","2.2.0","89643","79161","visual_search_trial","982","","j","","","","","","","","","","null","red_blue_mix","1","[""images/Blue_Circle.png"",""images/Red_Circle.png"",""images/Blue_Triangle.png"",""images/Blue_Triangle.png"",""images/Red_Circle.png"",""images/Blue_Circle.png"",""images/Red_Circle.png"",""images/Blue_Triangle.png"",""images/Blue_Triangle.png""]","true","[[92,245],[177,238],[238,177],[245,92],[196,22],[114,0],[36,36],[0,114],[22,196]]","false",""
"visual-search-circle","34","2.2.0","92889","79161","visual_search_trial","1742","","f","","","","","","","","","","null","blue_triangle","1","[""images/Red_Triangle.png"",""images/Blue_Triangle.png"",""images/Blue_Triangle.png"",""images/Blue_Triangle.png"",""images/Blue_Triangle.png"",""images/Blue_Triangle.png""]","true","[[244,161],[216,39],[96,3],[5,88],[33,210],[153,246]]","true",""
"visual-search-circle","35","2.2.0","95961","79161","visual_search_trial","1566","","f","","","","","","","","","","null","red_blue_mix","1","[""images/Red_Triangle.png"",""images/Blue_Triangle.png"",""images/Blue_Triangle.png"",""images/Red_Circle.png"",""images/Red_Circle.png"",""images/Blue_Triangle.png"",""images/Red_Circle.png"",""images/Blue_Triangle.png"",""images/Red_Circle.png""]","true","[[183,14],[99,2],[26,48],[0,129],[32,208],[107,248],[191,231],[243,163],[240,78]]","true",""
"visual-search-circle","36","2.2.0","98908","79161","visual_search_trial","1444","","j","","","","","","","","","","null","blue_triangle","1","[""images/Blue_Triangle.png"",""images/Blue_Triangle.png"",""images/Blue_Triangle.png""]","true","[[153,3],[5,161],[216,210]]","false",""
"visual-search-circle","37","2.2.0","101452","79161","visual_search_trial","1039","","j","","","","","","","","","","null","red_blue_mix","1","[""images/Blue_Triangle.png"",""images/Blue_Triangle.png"",""images/Red_Circle.png"",""images/Blue_Triangle.png"",""images/Blue_Circle.png"",""images/Blue_Circle.png""]","true","[[26,48],[9,171],[107,248],[223,201],[240,78],[142,1]]","false",""
"visual-search-circle","38","2.2.0","103635","79161","visual_search_trial","680","","f","","","","","","","","","","null","blue_triangle","1","[""images/Red_Triangle.png"",""images/Blue_Triangle.png"",""images/Blue_Triangle.png""]","true","[[38,35],[90,245],[246,94]]","true",""
"visual-search-circle","39","2.2.0","107337","79161","visual_search_trial","2196","","f","","","","","","","","","","null","red_circle","1","[""images/Red_Triangle.png"",""images/Red_Circle.png"",""images/Red_Circle.png"",""images/Red_Circle.png"",""images/Red_Circle.png"",""images/Red_Circle.png"",""images/Red_Circle.png"",""images/Red_Circle.png"",""images/Red_Circle.png""]","true","[[153,3],[68,13],[9,76],[5,161],[56,229],[140,249],[216,210],[249,131],[224,49]]","true",""
"visual-search-circle","40","2.2.0","109716","79161","visual_search_trial","876","","j","","","","","","","","","","null","red_blue_mix","1","[""images/Blue_Triangle.png"",""images/Red_Circle.png"",""images/Blue_Triangle.png""]","true","[[46,222],[248,144],[80,8]]","false",""
"visual-search-circle","41","2.2.0","112683","79161","visual_search_trial","1462","","f","","","","","","","","","","null","red_circle","1","[""images/Red_Triangle.png"",""images/Red_Circle.png"",""images/Red_Circle.png"",""images/Red_Circle.png"",""images/Red_Circle.png"",""images/Red_Circle.png""]","true","[[101,2],[6,84],[30,207],[148,247],[243,165],[219,42]]","true",""
"visual-search-circle","42","2.2.0","114845","79161","visual_search_trial","657","","j","","","","","","","","","","null","blue_triangle","1","[""images/Blue_Triangle.png"",""images/Blue_Triangle.png"",""images/Blue_Triangle.png"",""images/Blue_Triangle.png"",""images/Blue_Triangle.png"",""images/Blue_Triangle.png""]","true","[[51,226],[175,239],[249,138],[198,23],[74,10],[0,111]]","false",""
"visual-search-circle","43","2.2.0","117144","79161","visual_search_trial","795","","j","","","","","","","","","","null","red_circle","1","[""images/Red_Circle.png"",""images/Red_Circle.png"",""images/Red_Circle.png"",""images/Red_Circle.png"",""images/Red_Circle.png"",""images/Red_Circle.png""]","true","[[0,133],[70,237],[194,228],[249,116],[179,12],[55,21]]","false",""
"visual-search-circle","44","2.2.0","119327","79161","visual_search_trial","677","","j","","","","","","","","","","null","blue_triangle","1","[""images/Blue_Triangle.png"",""images/Blue_Triangle.png"",""images/Blue_Triangle.png"",""images/Blue_Triangle.png"",""images/Blue_Triangle.png"",""images/Blue_Triangle.png"",""images/Blue_Triangle.png"",""images/Blue_Triangle.png"",""images/Blue_Triangle.png""]","true","[[109,0],[33,39],[0,118],[25,200],[96,246],[181,236],[240,173],[244,88],[193,20]]","false",""
"visual-search-circle","45","2.2.0","121495","79161","visual_search_trial","664","","f","","","","","","","","","","null","red_circle","1","[""images/Red_Triangle.png"",""images/Red_Circle.png"",""images/Red_Circle.png""]","true","[[247,99],[41,32],[86,243]]","true",""
"visual-search-circle","46","2.2.0","123765","79161","visual_search_trial","766","","f","","","","","","","","","","null","red_blue_mix","1","[""images/Red_Triangle.png"",""images/Blue_Circle.png"",""images/Blue_Circle.png"",""images/Red_Circle.png"",""images/Blue_Circle.png"",""images/Blue_Circle.png""]","true","[[94,246],[214,211],[245,90],[155,3],[35,38],[4,159]]","true",""
"visual-search-circle","47","2.2.0","126053","79161","visual_search_trial","782","","j","","","","","","","","","","null","red_circle","1","[""images/Red_Circle.png"",""images/Red_Circle.png"",""images/Red_Circle.png"",""images/Red_Circle.png"",""images/Red_Circle.png"",""images/Red_Circle.png"",""images/Red_Circle.png"",""images/Red_Circle.png"",""images/Red_Circle.png""]","true","[[111,249],[194,228],[245,159],[239,74],[179,12],[94,3],[23,51],[0,133],[35,211]]","false",""
"visual-search-circle","48","2.2.0","128199","79161","visual_search_trial","641","","f","","","","","","","","","","null","blue_triangle","1","[""images/Red_Triangle.png"",""images/Blue_Triangle.png"",""images/Blue_Triangle.png"",""images/Blue_Triangle.png"",""images/Blue_Triangle.png"",""images/Blue_Triangle.png"",""images/Blue_Triangle.png"",""images/Blue_Triangle.png"",""images/Blue_Triangle.png""]","true","[[135,0],[53,22],[4,92],[11,177],[72,238],[157,245],[227,196],[249,114],[213,36]]","true",""
"visual-search-circle","49","2.2.0","130506","79161","visual_search_trial","802","","j","","","","","","","","","","null","red_circle","1","[""images/Red_Circle.png"",""images/Red_Circle.png"",""images/Red_Circle.png""]","true","[[80,241],[248,105],[46,27]]","false",""
"visual-search-circle","50","2.2.0","132874","79161","visual_search_trial","865","","f","","","","","","","","","","null","red_blue_mix","1","[""images/Red_Triangle.png"",""images/Blue_Circle.png"",""images/Blue_Triangle.png""]","true","[[181,236],[193,20],[0,118]]","true",""
"html-keyboard-response","51","2.1.0","145445","79161","break","12569","<p>Great job so far! Please rest for a few seconds before continuing.</p>
                 <p>Press the <strong>S</strong> key on your keyboard to continue.</p>","s","","","","","","","","","","","","","","","","","S"
"visual-search-circle","52","2.2.0","148410","79161","visual_search_trial","1462","","f","","","","","","","","","","null","red_blue_mix","2","[""images/Red_Triangle.png"",""images/Red_Circle.png"",""images/Red_Circle.png"",""images/Blue_Circle.png"",""images/Blue_Triangle.png"",""images/Blue_Triangle.png""]","true","[[49,25],[0,140],[76,240],[200,224],[249,109],[173,9]]","true",""
"visual-search-circle","53","2.2.0","150527","79161","visual_search_trial","612","","j","","","","","","","","","","null","blue_triangle","2","[""images/Blue_Triangle.png"",""images/Blue_Triangle.png"",""images/Blue_Triangle.png"",""images/Blue_Triangle.png"",""images/Blue_Triangle.png"",""images/Blue_Triangle.png""]","true","[[49,224],[173,240],[249,140],[200,25],[76,9],[0,109]]","false",""
"visual-search-circle","54","2.2.0","152583","79161","visual_search_trial","552","","f","","","","","","","","","","null","red_blue_mix","2","[""images/Red_Triangle.png"",""images/Blue_Triangle.png"",""images/Blue_Circle.png""]","true","[[4,92],[157,245],[213,36]]","true",""
"visual-search-circle","55","2.2.0","154704","79161","visual_search_trial","617","","j","","","","","","","","","","null","blue_triangle","2","[""images/Blue_Triangle.png"",""images/Blue_Triangle.png"",""images/Blue_Triangle.png""]","true","[[249,122],[60,17],[64,234]]","false",""
"visual-search-circle","56","2.2.0","157032","79161","visual_search_trial","823","","j","","","","","","","","","","null","red_circle","2","[""images/Red_Circle.png"",""images/Red_Circle.png"",""images/Red_Circle.png"",""images/Red_Circle.png"",""images/Red_Circle.png"",""images/Red_Circle.png""]","true","[[99,247],[217,208],[243,86],[150,2],[32,41],[6,163]]","false",""
"visual-search-circle","57","2.2.0","159229","79161","visual_search_trial","692","","j","","","","","","","","","","null","blue_triangle","2","[""images/Blue_Triangle.png"",""images/Blue_Triangle.png"",""images/Blue_Triangle.png"",""images/Blue_Triangle.png"",""images/Blue_Triangle.png"",""images/Blue_Triangle.png"",""images/Blue_Triangle.png"",""images/Blue_Triangle.png"",""images/Blue_Triangle.png""]","true","[[157,4],[72,11],[11,72],[4,157],[53,227],[135,249],[213,213],[249,135],[227,53]]","false",""
"visual-search-circle","58","2.2.0","161558","79161","visual_search_trial","823","","j","","","","","","","","","","null","red_blue_mix","2","[""images/Blue_Triangle.png"",""images/Red_Circle.png"",""images/Blue_Triangle.png"",""images/Blue_Circle.png"",""images/Red_Circle.png"",""images/Blue_Triangle.png""]","true","[[249,135],[196,22],[72,11],[0,114],[53,227],[177,238]]","false",""
"visual-search-circle","59","2.2.0","163704","79161","visual_search_trial","643","","f","","","","","","","","","","null","blue_triangle","2","[""images/Red_Triangle.png"",""images/Blue_Triangle.png"",""images/Blue_Triangle.png""]","true","[[237,70],[21,55],[116,249]]","true",""
"visual-search-circle","60","2.2.0","166211","79161","visual_search_trial","1004","","f","","","","","","","","","","null","red_circle","2","[""images/Red_Triangle.png"",""images/Red_Circle.png"",""images/Red_Circle.png""]","true","[[6,84],[148,247],[219,42]]","true",""
"visual-search-circle","61","2.2.0","168637","79161","visual_search_trial","920","","f","","","","","","","","","","null","red_blue_mix","2","[""images/Red_Triangle.png"",""images/Blue_Circle.png"",""images/Blue_Triangle.png"",""images/Blue_Circle.png"",""images/Blue_Triangle.png"",""images/Red_Circle.png"",""images/Red_Circle.png"",""images/Blue_Circle.png"",""images/Red_Circle.png""]","true","[[229,56],[161,5],[76,9],[13,68],[3,153],[49,224],[131,249],[210,216],[249,140]]","true",""
"visual-search-circle","62","2.2.0","170995","79161","visual_search_trial","854","","f","","","","","","","","","","null","red_circle","2","[""images/Red_Triangle.png"",""images/Red_Circle.png"",""images/Red_Circle.png"",""images/Red_Circle.png"",""images/Red_Circle.png"",""images/Red_Circle.png""]","true","[[4,157],[92,245],[213,213],[245,92],[157,4],[36,36]]","true",""
"visual-search-circle","63","2.2.0","173222","79161","visual_search_trial","724","","j","","","","","","","","","","null","red_blue_mix","2","[""images/Blue_Circle.png"",""images/Blue_Triangle.png"",""images/Blue_Circle.png""]","true","[[177,238],[196,22],[0,114]]","false",""
"visual-search-circle","64","2.2.0","175406","79161","visual_search_trial","678","","f","","","","","","","","","","null","blue_triangle","2","[""images/Red_Triangle.png"",""images/Blue_Triangle.png"",""images/Blue_Triangle.png"",""images/Blue_Triangle.png"",""images/Blue_Triangle.png"",""images/Blue_Triangle.png"",""images/Blue_Triangle.png"",""images/Blue_Triangle.png"",""images/Blue_Triangle.png""]","true","[[1,107],[18,191],[86,243],[171,240],[235,183],[247,99],[201,26],[120,0],[41,32]]","true",""
"visual-search-circle","65","2.2.0","180945","79161","visual_search_trial","4033","","j","","","","","","","","","","null","red_circle","2","[""images/Red_Circle.png"",""images/Red_Circle.png"",""images/Red_Circle.png"",""images/Red_Circle.png"",""images/Red_Circle.png"",""images/Red_Circle.png"",""images/Red_Circle.png"",""images/Red_Circle.png"",""images/Red_Circle.png""]","true","[[148,2],[64,15],[8,80],[6,165],[60,232],[144,248],[219,207],[249,127],[222,46]]","false",""
"visual-search-circle","66","2.2.0","183263","79161","visual_search_trial","814","","f","","","","","","","","","","null","blue_triangle","2","[""images/Red_Triangle.png"",""images/Blue_Triangle.png"",""images/Blue_Triangle.png"",""images/Blue_Triangle.png"",""images/Blue_Triangle.png"",""images/Blue_Triangle.png""]","true","[[196,227],[249,114],[177,11],[53,22],[0,135],[72,238]]","true",""
"visual-search-circle","67","2.2.0","185783","79161","visual_search_trial","1014","","f","","","","","","","","","","null","red_circle","2","[""images/Red_Triangle.png"",""images/Red_Circle.png"",""images/Red_Circle.png"",""images/Red_Circle.png"",""images/Red_Circle.png"",""images/Red_Circle.png"",""images/Red_Circle.png"",""images/Red_Circle.png"",""images/Red_Circle.png""]","true","[[249,120],[217,41],[142,1],[58,18],[6,86],[9,171],[66,235],[150,247],[223,201]]","true",""
"visual-search-circle","68","2.2.0","188111","79161","visual_search_trial","821","","j","","","","","","","","","","null","red_blue_mix","2","[""images/Red_Circle.png"",""images/Red_Circle.png"",""images/Blue_Triangle.png"",""images/Blue_Triangle.png"",""images/Blue_Circle.png"",""images/Blue_Triangle.png"",""images/Red_Circle.png"",""images/Blue_Circle.png"",""images/Blue_Circle.png""]","true","[[224,49],[153,3],[68,13],[9,76],[5,161],[56,229],[140,249],[216,210],[249,131]]","false",""
"visual-search-circle","69","2.2.0","190346","79161","visual_search_trial","731","","j","","","","","","","","","","null","red_circle","2","[""images/Red_Circle.png"",""images/Red_Circle.png"",""images/Red_Circle.png""]","true","[[2,150],[208,217],[163,6]]","false",""
"visual-search-circle","70","2.2.0","192477","79161","visual_search_trial","627","","f","","","","","","","","","","null","red_blue_mix","3","[""images/Red_Triangle.png"",""images/Blue_Triangle.png"",""images/Red_Circle.png""]","true","[[4,159],[214,211],[155,3]]","true",""
"visual-search-circle","71","2.2.0","194651","79161","visual_search_trial","668","","f","","","","","","","","","","null","blue_triangle","3","[""images/Red_Triangle.png"",""images/Blue_Triangle.png"",""images/Blue_Triangle.png"",""images/Blue_Triangle.png"",""images/Blue_Triangle.png"",""images/Blue_Triangle.png"",""images/Blue_Triangle.png"",""images/Blue_Triangle.png"",""images/Blue_Triangle.png""]","true","[[165,6],[80,8],[15,64],[2,148],[46,222],[127,249],[207,219],[248,144],[232,60]]","true",""
"visual-search-circle","72","2.2.0","196846","79161","visual_search_trial","692","","j","","","","","","","","","","null","red_blue_mix","3","[""images/Blue_Triangle.png"",""images/Blue_Circle.png"",""images/Blue_Circle.png""]","true","[[249,111],[51,23],[74,239]]","false",""
"visual-search-circle","73","2.2.0","199024","79161","visual_search_trial","674","","j","","","","","","","","","","null","red_circle","3","[""images/Red_Circle.png"",""images/Red_Circle.png"",""images/Red_Circle.png""]","true","[[109,0],[25,200],[240,173]]","false",""
"visual-search-circle","74","2.2.0","201143","79161","visual_search_trial","615","","j","","","","","","","","","","null","blue_triangle","3","[""images/Blue_Triangle.png"",""images/Blue_Triangle.png"",""images/Blue_Triangle.png""]","true","[[240,171],[107,1],[26,201]]","false",""
"visual-search-circle","75","2.2.0","203288","79161","visual_search_trial","641","","f","","","","","","","","","","null","red_circle","3","[""images/Red_Triangle.png"",""images/Red_Circle.png"",""images/Red_Circle.png"",""images/Red_Circle.png"",""images/Red_Circle.png"",""images/Red_Circle.png""]","true","[[171,9],[48,26],[1,142],[78,240],[201,223],[248,107]]","true",""
"visual-search-circle","76","2.2.0","205488","79161","visual_search_trial","696","","j","","","","","","","","","","null","red_blue_mix","3","[""images/Red_Circle.png"",""images/Blue_Circle.png"",""images/Blue_Circle.png"",""images/Blue_Circle.png"",""images/Blue_Circle.png"",""images/Blue_Triangle.png""]","true","[[153,246],[244,161],[216,39],[96,3],[5,88],[33,210]]","false",""
"visual-search-circle","77","2.2.0","207472","79161","visual_search_trial","480","","f","","","","","","","","","","null","red_circle","3","[""images/Red_Triangle.png"",""images/Red_Circle.png"",""images/Red_Circle.png""]","true","[[155,3],[4,159],[214,211]]","true",""
"visual-search-circle","78","2.2.0","209940","79161","visual_search_trial","962","","f","","","","","","","","","","null","red_blue_mix","3","[""images/Red_Triangle.png"",""images/Red_Circle.png"",""images/Blue_Circle.png"",""images/Blue_Triangle.png"",""images/Blue_Circle.png"",""images/Blue_Triangle.png"",""images/Blue_Circle.png"",""images/Blue_Triangle.png"",""images/Red_Circle.png""]","true","[[249,120],[217,41],[142,1],[58,18],[6,86],[9,171],[66,235],[150,247],[223,201]]","true",""
"visual-search-circle","79","2.2.0","212109","79161","visual_search_trial","664","","j","","","","","","","","","","null","blue_triangle","3","[""images/Blue_Triangle.png"",""images/Blue_Triangle.png"",""images/Blue_Triangle.png"",""images/Blue_Triangle.png"",""images/Blue_Triangle.png"",""images/Blue_Triangle.png"",""images/Blue_Triangle.png"",""images/Blue_Triangle.png"",""images/Blue_Triangle.png""]","true","[[22,196],[92,245],[177,238],[238,177],[245,92],[196,22],[114,0],[36,36],[0,114]]","false",""
"visual-search-circle","80","2.2.0","214156","79161","visual_search_trial","542","","f","","","","","","","","","","null","red_circle","3","[""images/Red_Triangle.png"",""images/Red_Circle.png"",""images/Red_Circle.png"",""images/Red_Circle.png"",""images/Red_Circle.png"",""images/Red_Circle.png"",""images/Red_Circle.png"",""images/Red_Circle.png"",""images/Red_Circle.png""]","true","[[222,46],[148,2],[64,15],[8,80],[6,165],[60,232],[144,248],[219,207],[249,127]]","true",""
"visual-search-circle","81","2.2.0","216753","79161","visual_search_trial","1093","","f","","","","","","","","","","null","red_blue_mix","3","[""images/Red_Triangle.png"",""images/Blue_Circle.png"",""images/Blue_Circle.png"",""images/Blue_Triangle.png"",""images/Blue_Triangle.png"",""images/Red_Circle.png""]","true","[[222,203],[241,80],[144,1],[27,46],[8,169],[105,248]]","true",""
"visual-search-circle","82","2.2.0","218845","79161","visual_search_trial","587","","j","","","","","","","","","","null","blue_triangle","3","[""images/Blue_Triangle.png"",""images/Blue_Triangle.png"",""images/Blue_Triangle.png"",""images/Blue_Triangle.png"",""images/Blue_Triangle.png"",""images/Blue_Triangle.png""]","true","[[171,9],[48,26],[1,142],[78,240],[201,223],[248,107]]","false",""
"visual-search-circle","83","2.2.0","221104","79161","visual_search_trial","754","","j","","","","","","","","","","null","red_circle","3","[""images/Red_Circle.png"",""images/Red_Circle.png"",""images/Red_Circle.png"",""images/Red_Circle.png"",""images/Red_Circle.png"",""images/Red_Circle.png""]","true","[[144,248],[241,169],[222,46],[105,1],[8,80],[27,203]]","false",""
"visual-search-circle","84","2.2.0","224112","79161","visual_search_trial","1502","","j","","","","","","","","","","null","red_blue_mix","3","[""images/Blue_Circle.png"",""images/Red_Circle.png"",""images/Blue_Triangle.png"",""images/Red_Circle.png"",""images/Blue_Circle.png"",""images/Blue_Triangle.png"",""images/Red_Circle.png"",""images/Blue_Triangle.png"",""images/Blue_Circle.png""]","true","[[249,118],[216,39],[140,0],[56,20],[5,88],[9,173],[68,236],[153,246],[224,200]]","false",""
"visual-search-circle","85","2.2.0","226282","79161","visual_search_trial","667","","f","","","","","","","","","","null","blue_triangle","3","[""images/Red_Triangle.png"",""images/Blue_Triangle.png"",""images/Blue_Triangle.png"",""images/Blue_Triangle.png"",""images/Blue_Triangle.png"",""images/Blue_Triangle.png""]","true","[[142,1],[26,48],[9,171],[107,248],[223,201],[240,78]]","true",""
"visual-search-circle","86","2.2.0","231587","79161","visual_search_trial","3800","","j","","","","","","","","","","null","red_circle","3","[""images/Red_Circle.png"",""images/Red_Circle.png"",""images/Red_Circle.png"",""images/Red_Circle.png"",""images/Red_Circle.png"",""images/Red_Circle.png"",""images/Red_Circle.png"",""images/Red_Circle.png"",""images/Red_Circle.png""]","true","[[120,249],[201,223],[247,150],[235,66],[171,9],[86,6],[18,58],[1,142],[41,217]]","false",""
"visual-search-circle","87","2.2.0","234652","79161","visual_search_trial","1562","","f","","","","","","","","","","null","blue_triangle","3","[""images/Red_Triangle.png"",""images/Blue_Triangle.png"",""images/Blue_Triangle.png""]","true","[[74,10],[51,226],[249,138]]","true",""
"html-keyboard-response","88","2.1.0","237373","79161","break","2720","<p>Great job so far! Please rest for a few seconds before continuing.</p>
                 <p>Press the <strong>X</strong> key on your keyboard to continue.</p>","x","","","","","","","","","","","","","","","","","X"
"visual-search-circle","89","2.2.0","239753","79161","visual_search_trial","875","","f","","","","","","","","","","null","red_circle","4","[""images/Red_Triangle.png"",""images/Red_Circle.png"",""images/Red_Circle.png"",""images/Red_Circle.png"",""images/Red_Circle.png"",""images/Red_Circle.png"",""images/Red_Circle.png"",""images/Red_Circle.png"",""images/Red_Circle.png""]","true","[[247,148],[234,64],[169,8],[84,6],[17,60],[1,144],[42,219],[122,249],[203,222]]","true",""
"visual-search-circle","90","2.2.0","241977","79161","visual_search_trial","720","","f","","","","","","","","","","null","blue_triangle","4","[""images/Red_Triangle.png"",""images/Blue_Triangle.png"",""images/Blue_Triangle.png""]","true","[[0,118],[181,236],[193,20]]","true",""
"visual-search-circle","91","2.2.0","244065","79161","visual_search_trial","586","","f","","","","","","","","","","null","red_circle","4","[""images/Red_Triangle.png"",""images/Red_Circle.png"",""images/Red_Circle.png""]","true","[[118,0],[20,193],[236,181]]","true",""
"visual-search-circle","92","2.2.0","246281","79161","visual_search_trial","711","","f","","","","","","","","","","null","blue_triangle","4","[""images/Red_Triangle.png"",""images/Blue_Triangle.png"",""images/Blue_Triangle.png"",""images/Blue_Triangle.png"",""images/Blue_Triangle.png"",""images/Blue_Triangle.png""]","true","[[51,226],[175,239],[249,138],[198,23],[74,10],[0,111]]","true",""
"visual-search-circle","93","2.2.0","248430","79161","visual_search_trial","645","","j","","","","","","","","","","null","red_blue_mix","4","[""images/Red_Circle.png"",""images/Blue_Circle.png"",""images/Red_Circle.png""]","true","[[175,239],[198,23],[0,111]]","false",""
"visual-search-circle","94","2.2.0","250515","79161","visual_search_trial","581","","f","","","","","","","","","","null","red_circle","4","[""images/Red_Triangle.png"",""images/Red_Circle.png"",""images/Red_Circle.png"",""images/Red_Circle.png"",""images/Red_Circle.png"",""images/Red_Circle.png""]","true","[[60,17],[0,127],[64,234],[189,232],[249,122],[185,15]]","true",""
"visual-search-circle","95","2.2.0","252670","79161","visual_search_trial","651","","f","","","","","","","","","","null","blue_triangle","4","[""images/Red_Triangle.png"",""images/Blue_Triangle.png"",""images/Blue_Triangle.png"",""images/Blue_Triangle.png"",""images/Blue_Triangle.png"",""images/Blue_Triangle.png"",""images/Blue_Triangle.png"",""images/Blue_Triangle.png"",""images/Blue_Triangle.png""]","true","[[228,194],[249,111],[211,35],[133,0],[51,23],[3,94],[12,179],[74,239],[159,245]]","true",""
"visual-search-circle","96","2.2.0","254880","79161","visual_search_trial","705","","j","","","","","","","","","","null","red_circle","4","[""images/Red_Circle.png"",""images/Red_Circle.png"",""images/Red_Circle.png"",""images/Red_Circle.png"",""images/Red_Circle.png"",""images/Red_Circle.png"",""images/Red_Circle.png"",""images/Red_Circle.png"",""images/Red_Circle.png""]","true","[[129,0],[48,26],[2,99],[14,183],[78,240],[163,243],[231,191],[248,107],[208,32]]","false",""
"visual-search-circle","97","2.2.0","258264","79161","visual_search_trial","1879","","j","","","","","","","","","","null","red_blue_mix","4","[""images/Blue_Triangle.png"",""images/Red_Circle.png"",""images/Red_Circle.png"",""images/Blue_Circle.png"",""images/Blue_Triangle.png"",""images/Blue_Circle.png""]","true","[[2,150],[86,243],[208,217],[247,99],[163,6],[41,32]]","false",""
"visual-search-circle","98","2.2.0","260331","79161","visual_search_trial","563","","j","","","","","","","","","","null","blue_triangle","4","[""images/Blue_Triangle.png"",""images/Blue_Triangle.png"",""images/Blue_Triangle.png""]","true","[[5,88],[153,246],[216,39]]","false",""
"visual-search-circle","99","2.2.0","262513","79161","visual_search_trial","678","","f","","","","","","","","","","null","red_blue_mix","4","[""images/Red_Triangle.png"",""images/Blue_Circle.png"",""images/Red_Circle.png"",""images/Blue_Circle.png"",""images/Blue_Circle.png"",""images/Red_Circle.png""]","true","[[56,20],[0,131],[68,236],[193,229],[249,118],[181,13]]","true",""
"visual-search-circle","100","2.2.0","264750","79161","visual_search_trial","731","","j","","","","","","","","","","null","blue_triangle","4","[""images/Blue_Triangle.png"",""images/Blue_Triangle.png"",""images/Blue_Triangle.png"",""images/Blue_Triangle.png"",""images/Blue_Triangle.png"",""images/Blue_Triangle.png"",""images/Blue_Triangle.png"",""images/Blue_Triangle.png"",""images/Blue_Triangle.png""]","true","[[129,0],[48,26],[2,99],[14,183],[78,240],[163,243],[231,191],[248,107],[208,32]]","false",""
"visual-search-circle","101","2.2.0","267054","79161","visual_search_trial","799","","j","","","","","","","","","","null","red_blue_mix","4","[""images/Blue_Triangle.png"",""images/Blue_Circle.png"",""images/Red_Circle.png"",""images/Red_Circle.png"",""images/Blue_Triangle.png"",""images/Red_Circle.png"",""images/Red_Circle.png"",""images/Red_Circle.png"",""images/Blue_Circle.png""]","true","[[247,99],[201,26],[120,0],[41,32],[1,107],[18,191],[86,243],[171,240],[235,183]]","false",""
"visual-search-circle","102","2.2.0","269911","79161","visual_search_trial","1353","","j","","","","","","","","","","null","red_circle","4","[""images/Red_Circle.png"",""images/Red_Circle.png"",""images/Red_Circle.png""]","true","[[249,109],[49,25],[76,240]]","false",""
"visual-search-circle","103","2.2.0","272067","79161","visual_search_trial","653","","f","","","","","","","","","","null","red_blue_mix","4","[""images/Red_Triangle.png"",""images/Blue_Triangle.png"",""images/Blue_Triangle.png""]","true","[[78,240],[248,107],[48,26]]","true",""
"visual-search-circle","104","2.2.0","274392","79161","visual_search_trial","823","","j","","","","","","","","","","null","blue_triangle","4","[""images/Blue_Triangle.png"",""images/Blue_Triangle.png"",""images/Blue_Triangle.png"",""images/Blue_Triangle.png"",""images/Blue_Triangle.png"",""images/Blue_Triangle.png""]","true","[[249,118],[181,13],[56,20],[0,131],[68,236],[193,229]]","false",""
"visual-search-circle","105","2.2.0","276659","79161","visual_search_trial","763","","j","","","","","","","","","","null","red_circle","4","[""images/Red_Circle.png"",""images/Red_Circle.png"",""images/Red_Circle.png"",""images/Red_Circle.png"",""images/Red_Circle.png"",""images/Red_Circle.png""]","true","[[48,26],[1,142],[78,240],[201,223],[248,107],[171,9]]","false",""
"visual-search-circle","106","2.2.0","279039","79161","visual_search_trial","875","","f","","","","","","","","","","null","red_blue_mix","4","[""images/Red_Triangle.png"",""images/Blue_Circle.png"",""images/Red_Circle.png"",""images/Blue_Triangle.png"",""images/Blue_Circle.png"",""images/Blue_Circle.png"",""images/Blue_Circle.png"",""images/Blue_Circle.png"",""images/Blue_Circle.png""]","true","[[249,116],[214,38],[138,0],[55,21],[4,90],[10,175],[70,237],[155,246],[226,198]]","true",""
"visual-search-circle","107","2.2.0","281223","79161","visual_search_trial","680","","j","","","","","","","","","","null","red_circle","5","[""images/Red_Circle.png"",""images/Red_Circle.png"",""images/Red_Circle.png"",""images/Red_Circle.png"",""images/Red_Circle.png"",""images/Red_Circle.png""]","true","[[150,2],[32,41],[6,163],[99,247],[217,208],[243,86]]","false",""
"visual-search-circle","108","2.2.0","283359","79161","visual_search_trial","632","","f","","","","","","","","","","null","red_blue_mix","5","[""images/Red_Triangle.png"",""images/Blue_Triangle.png"",""images/Blue_Triangle.png"",""images/Blue_Circle.png"",""images/Blue_Circle.png"",""images/Blue_Triangle.png""]","true","[[146,1],[29,44],[7,167],[103,248],[220,205],[242,82]]","true",""
"visual-search-circle","109","2.2.0","285805","79161","visual_search_trial","943","","j","","","","","","","","","","null","red_circle","5","[""images/Red_Circle.png"",""images/Red_Circle.png"",""images/Red_Circle.png""]","true","[[223,48],[9,78],[142,248]]","false",""
"visual-search-circle","110","2.2.0","288048","79161","visual_search_trial","740","","j","","","","","","","","","","null","blue_triangle","5","[""images/Blue_Triangle.png"",""images/Blue_Triangle.png"",""images/Blue_Triangle.png""]","true","[[249,111],[51,23],[74,239]]","false",""
"visual-search-circle","111","2.2.0","290658","79161","visual_search_trial","1105","","j","","","","","","","","","","null","red_blue_mix","5","[""images/Red_Circle.png"",""images/Blue_Triangle.png"",""images/Blue_Triangle.png"",""images/Blue_Triangle.png"",""images/Red_Circle.png"",""images/Blue_Circle.png""]","true","[[142,1],[26,48],[9,171],[107,248],[223,201],[240,78]]","false",""
"visual-search-circle","112","2.2.0","292824","79161","visual_search_trial","662","","f","","","","","","","","","","null","red_circle","5","[""images/Red_Triangle.png"",""images/Red_Circle.png"",""images/Red_Circle.png""]","true","[[3,155],[211,214],[159,4]]","true",""
"visual-search-circle","113","2.2.0","295234","79161","visual_search_trial","905","","f","","","","","","","","","","null","blue_triangle","5","[""images/Red_Triangle.png"",""images/Blue_Triangle.png"",""images/Blue_Triangle.png"",""images/Blue_Triangle.png"",""images/Blue_Triangle.png"",""images/Blue_Triangle.png"",""images/Blue_Triangle.png"",""images/Blue_Triangle.png"",""images/Blue_Triangle.png""]","true","[[90,245],[175,239],[237,179],[246,94],[198,23],[116,0],[38,35],[0,111],[21,194]]","true",""
"visual-search-circle","114","2.2.0","298100","79161","visual_search_trial","1361","","j","","","","","","","","","","null","red_blue_mix","5","[""images/Red_Circle.png"",""images/Red_Circle.png"",""images/Blue_Triangle.png"",""images/Red_Circle.png"",""images/Blue_Triangle.png"",""images/Blue_Triangle.png"",""images/Blue_Triangle.png"",""images/Blue_Circle.png"",""images/Blue_Triangle.png""]","true","[[118,249],[200,224],[246,153],[236,68],[173,9],[88,5],[20,56],[0,140],[39,216]]","false",""
"visual-search-circle","115","2.2.0","300281","79161","visual_search_trial","675","","j","","","","","","","","","","null","red_circle","5","[""images/Red_Circle.png"",""images/Red_Circle.png"",""images/Red_Circle.png"",""images/Red_Circle.png"",""images/Red_Circle.png"",""images/Red_Circle.png"",""images/Red_Circle.png"",""images/Red_Circle.png"",""images/Red_Circle.png""]","true","[[237,70],[175,10],[90,4],[21,55],[0,138],[38,214],[116,249],[198,226],[246,155]]","false",""
"visual-search-circle","116","2.2.0","302449","79161","visual_search_trial","663","","f","","","","","","","","","","null","red_blue_mix","5","[""images/Red_Triangle.png"",""images/Blue_Circle.png"",""images/Blue_Circle.png"",""images/Blue_Triangle.png"",""images/Blue_Triangle.png"",""images/Blue_Circle.png"",""images/Blue_Circle.png"",""images/Red_Circle.png"",""images/Blue_Circle.png""]","true","[[101,2],[27,46],[0,127],[30,207],[105,248],[189,232],[243,165],[241,80],[185,15]]","true",""
"visual-search-circle","117","2.2.0","304530","79161","visual_search_trial","577","","j","","","","","","","","","","null","blue_triangle","5","[""images/Blue_Triangle.png"",""images/Blue_Triangle.png"",""images/Blue_Triangle.png"",""images/Blue_Triangle.png"",""images/Blue_Triangle.png"",""images/Blue_Triangle.png"",""images/Blue_Triangle.png"",""images/Blue_Triangle.png"",""images/Blue_Triangle.png""]","true","[[58,231],[142,248],[217,208],[249,129],[223,48],[150,2],[66,14],[9,78],[6,163]]","false",""
"visual-search-circle","118","2.2.0","306637","79161","visual_search_trial","603","","f","","","","","","","","","","null","red_circle","5","[""images/Red_Triangle.png"",""images/Red_Circle.png"",""images/Red_Circle.png"",""images/Red_Circle.png"",""images/Red_Circle.png"",""images/Red_Circle.png""]","true","[[80,241],[203,222],[248,105],[169,8],[46,27],[1,144]]","true",""
"visual-search-circle","119","2.2.0","308990","79161","visual_search_trial","850","","f","","","","","","","","","","null","blue_triangle","5","[""images/Red_Triangle.png"",""images/Blue_Triangle.png"",""images/Blue_Triangle.png"",""images/Blue_Triangle.png"",""images/Blue_Triangle.png"",""images/Blue_Triangle.png""]","true","[[198,226],[249,111],[175,10],[51,23],[0,138],[74,239]]","true",""
"visual-search-circle","120","2.2.0","311737","79161","visual_search_trial","1244","","j","","","","","","","","","","null","red_blue_mix","5","[""images/Blue_Triangle.png"",""images/Red_Circle.png"",""images/Red_Circle.png""]","true","[[241,80],[27,46],[105,248]]","false",""
"visual-search-circle","121","2.2.0","313837","79161","visual_search_trial","596","","f","","","","","","","","","","null","blue_triangle","5","[""images/Red_Triangle.png"",""images/Blue_Triangle.png"",""images/Blue_Triangle.png""]","true","[[76,240],[249,109],[49,25]]","true",""
"visual-search-circle","122","2.2.0","316025","79161","visual_search_trial","684","","j","","","","","","","","","","null","red_blue_mix","5","[""images/Red_Triangle.png"",""images/Red_Circle.png"",""images/Blue_Circle.png""]","false","[[249,116],[55,21],[70,237]]","true",""
"visual-search-circle","123","2.2.0","318507","79161","visual_search_trial","977","","f","","","","","","","","","","null","red_circle","5","[""images/Red_Triangle.png"",""images/Red_Circle.png"",""images/Red_Circle.png"",""images/Red_Circle.png"",""images/Red_Circle.png"",""images/Red_Circle.png"",""images/Red_Circle.png"",""images/Red_Circle.png"",""images/Red_Circle.png""]","true","[[175,10],[90,4],[21,55],[0,138],[38,214],[116,249],[198,226],[246,155],[237,70]]","true",""
"visual-search-circle","124","2.2.0","320550","79161","visual_search_trial","539","","j","","","","","","","","","","null","blue_triangle","5","[""images/Blue_Triangle.png"",""images/Blue_Triangle.png"",""images/Blue_Triangle.png"",""images/Blue_Triangle.png"",""images/Blue_Triangle.png"",""images/Blue_Triangle.png""]","true","[[8,169],[105,248],[222,203],[241,80],[144,1],[27,46]]","false",""
"html-keyboard-response","125","2.1.0","325904","79161","break","5353","<p>Great job so far! Please rest for a few seconds before continuing.</p>
                 <p>Press the <strong>T</strong> key on your keyboard to continue.</p>","t","","","","","","","","","","","","","","","","","T"
"visual-search-circle","126","2.2.0","327986","79161","visual_search_trial","578","","f","","","","","","","","","","null","red_circle","6","[""images/Red_Triangle.png"",""images/Red_Circle.png"",""images/Red_Circle.png"",""images/Red_Circle.png"",""images/Red_Circle.png"",""images/Red_Circle.png""]","true","[[17,60],[15,185],[122,249],[232,189],[234,64],[127,0]]","true",""
"visual-search-circle","127","2.2.0","330352","79161","visual_search_trial","860","","j","","","","","","","","","","null","blue_triangle","6","[""images/Blue_Triangle.png"",""images/Blue_Triangle.png"",""images/Blue_Triangle.png"",""images/Blue_Triangle.png"",""images/Blue_Triangle.png"",""images/Blue_Triangle.png"",""images/Blue_Triangle.png"",""images/Blue_Triangle.png"",""images/Blue_Triangle.png""]","true","[[153,246],[224,200],[249,118],[216,39],[140,0],[56,20],[5,88],[9,173],[68,236]]","false",""
"visual-search-circle","128","2.2.0","332661","79161","visual_search_trial","802","","f","","","","","","","","","","null","red_circle","6","[""images/Red_Triangle.png"",""images/Red_Circle.png"",""images/Red_Circle.png"",""images/Red_Circle.png"",""images/Red_Circle.png"",""images/Red_Circle.png"",""images/Red_Circle.png"",""images/Red_Circle.png"",""images/Red_Circle.png""]","true","[[138,249],[214,211],[249,133],[226,51],[155,3],[70,12],[10,74],[4,159],[55,228]]","true",""
"visual-search-circle","129","2.2.0","335174","79161","visual_search_trial","1010","","j","","","","","","","","","","null","red_blue_mix","6","[""images/Red_Circle.png"",""images/Blue_Triangle.png"",""images/Blue_Circle.png"",""images/Red_Circle.png"",""images/Blue_Triangle.png"",""images/Blue_Triangle.png""]","true","[[223,48],[107,1],[9,78],[26,201],[142,248],[240,171]]","false",""
"visual-search-circle","130","2.2.0","337684","79161","visual_search_trial","1005","","j","","","","","","","","","","null","blue_triangle","6","[""images/Blue_Triangle.png"",""images/Blue_Triangle.png"",""images/Blue_Triangle.png"",""images/Blue_Triangle.png"",""images/Blue_Triangle.png"",""images/Blue_Triangle.png""]","true","[[84,243],[207,219],[247,101],[165,6],[42,30],[2,148]]","false",""
"visual-search-circle","131","2.2.0","340150","79161","visual_search_trial","961","","f","","","","","","","","","","null","red_blue_mix","6","[""images/Red_Triangle.png"",""images/Red_Circle.png"",""images/Blue_Triangle.png"",""images/Blue_Circle.png"",""images/Blue_Circle.png"",""images/Blue_Triangle.png"",""images/Blue_Circle.png"",""images/Red_Circle.png"",""images/Blue_Circle.png""]","true","[[227,196],[249,114],[213,36],[135,0],[53,22],[4,92],[11,177],[72,238],[157,245]]","true",""
"visual-search-circle","132","2.2.0","342265","79161","visual_search_trial","611","","f","","","","","","","","","","null","blue_triangle","6","[""images/Red_Triangle.png"",""images/Blue_Triangle.png"",""images/Blue_Triangle.png"",""images/Blue_Triangle.png"",""images/Blue_Triangle.png"",""images/Blue_Triangle.png"",""images/Blue_Triangle.png"",""images/Blue_Triangle.png"",""images/Blue_Triangle.png""]","true","[[68,13],[9,76],[5,161],[56,229],[140,249],[216,210],[249,131],[224,49],[153,3]]","true",""
"visual-search-circle","133","2.2.0","344402","79161","visual_search_trial","633","","j","","","","","","","","","","null","red_circle","6","[""images/Red_Circle.png"",""images/Red_Circle.png"",""images/Red_Circle.png""]","true","[[6,165],[219,207],[148,2]]","false",""
"visual-search-circle","134","2.2.0","346567","79161","visual_search_trial","663","","f","","","","","","","","","","null","red_blue_mix","6","[""images/Red_Triangle.png"",""images/Blue_Triangle.png"",""images/Red_Circle.png""]","true","[[200,224],[173,9],[0,140]]","true",""
"visual-search-circle","135","2.2.0","348704","79161","visual_search_trial","633","","f","","","","","","","","","","null","blue_triangle","6","[""images/Red_Triangle.png"",""images/Blue_Triangle.png"",""images/Blue_Triangle.png"",""images/Blue_Triangle.png"",""images/Blue_Triangle.png"",""images/Blue_Triangle.png""]","true","[[203,27],[80,8],[1,105],[46,222],[169,241],[248,144]]","true",""
"visual-search-circle","136","2.2.0","350922","79161","visual_search_trial","715","","j","","","","","","","","","","null","red_blue_mix","6","[""images/Blue_Circle.png"",""images/Blue_Circle.png"",""images/Red_Circle.png""]","true","[[80,241],[248,105],[46,27]]","false",""
"visual-search-circle","137","2.2.0","353024","79161","visual_search_trial","599","","j","","","","","","","","","","null","red_circle","6","[""images/Red_Circle.png"",""images/Red_Circle.png"",""images/Red_Circle.png"",""images/Red_Circle.png"",""images/Red_Circle.png"",""images/Red_Circle.png"",""images/Red_Circle.png"",""images/Red_Circle.png"",""images/Red_Circle.png""]","true","[[125,250],[205,220],[248,146],[233,62],[167,7],[82,7],[16,62],[1,146],[44,220]]","false",""
"visual-search-circle","138","2.2.0","355136","79161","visual_search_trial","609","","f","","","","","","","","","","null","blue_triangle","6","[""images/Red_Triangle.png"",""images/Blue_Triangle.png"",""images/Blue_Triangle.png""]","true","[[248,107],[48,26],[78,240]]","true",""
"visual-search-circle","139","2.2.0","357315","79161","visual_search_trial","675","","j","","","","","","","","","","null","red_circle","6","[""images/Red_Circle.png"",""images/Red_Circle.png"",""images/Red_Circle.png"",""images/Red_Circle.png"",""images/Red_Circle.png"",""images/Red_Circle.png""]","true","[[94,246],[214,211],[245,90],[155,3],[35,38],[4,159]]","false",""
"visual-search-circle","140","2.2.0","359505","79161","visual_search_trial","686","","f","","","","","","","","","","null","red_blue_mix","6","[""images/Red_Triangle.png"",""images/Red_Circle.png"",""images/Red_Circle.png"",""images/Red_Circle.png"",""images/Red_Circle.png"",""images/Blue_Circle.png""]","true","[[68,236],[193,229],[249,118],[181,13],[56,20],[0,131]]","true",""
"visual-search-circle","141","2.2.0","361597","79161","visual_search_trial","588","","f","","","","","","","","","","null","red_circle","6","[""images/Red_Triangle.png"",""images/Red_Circle.png"",""images/Red_Circle.png""]","true","[[36,213],[245,157],[92,4]]","true",""
"visual-search-circle","142","2.2.0","363992","79161","visual_search_trial","891","","j","","","","","","","","","","null","blue_triangle","6","[""images/Blue_Triangle.png"",""images/Blue_Triangle.png"",""images/Blue_Triangle.png""]","true","[[49,25],[76,240],[249,109]]","false",""
"visual-search-circle","143","2.2.0","366757","79161","visual_search_trial","1259","","j","","","","","","","","","","null","red_blue_mix","6","[""images/Blue_Triangle.png"",""images/Red_Circle.png"",""images/Blue_Triangle.png"",""images/Red_Circle.png"",""images/Blue_Circle.png"",""images/Red_Circle.png"",""images/Blue_Triangle.png"",""images/Red_Circle.png"",""images/Blue_Triangle.png""]","true","[[249,135],[227,53],[157,4],[72,11],[11,72],[4,157],[53,227],[135,249],[213,213]]","false",""
"visual-search-circle","144","2.2.0","369007","79161","visual_search_trial","746","","j","","","","","","","","","","null","red_circle","7","[""images/Red_Circle.png"",""images/Red_Circle.png"",""images/Red_Circle.png"",""images/Red_Circle.png"",""images/Red_Circle.png"",""images/Red_Circle.png"",""images/Red_Circle.png"",""images/Red_Circle.png"",""images/Red_Circle.png""]","true","[[247,101],[203,27],[122,0],[42,30],[1,105],[17,189],[84,243],[169,241],[234,185]]","false",""
"visual-search-circle","145","2.2.0","371260","79161","visual_search_trial","749","","j","","","","","","","","","","null","red_blue_mix","7","[""images/Blue_Triangle.png"",""images/Blue_Circle.png"",""images/Red_Circle.png""]","true","[[105,1],[27,203],[241,169]]","false",""
"visual-search-circle","146","2.2.0","373472","79161","visual_search_trial","707","","f","","","","","","","","","","null","blue_triangle","7","[""images/Red_Triangle.png"",""images/Blue_Triangle.png"",""images/Blue_Triangle.png"",""images/Blue_Triangle.png"",""images/Blue_Triangle.png"",""images/Blue_Triangle.png""]","true","[[207,219],[247,101],[165,6],[42,30],[2,148],[84,243]]","true",""
"visual-search-circle","147","2.2.0","375604","79161","visual_search_trial","627","","f","","","","","","","","","","null","red_circle","7","[""images/Red_Triangle.png"",""images/Red_Circle.png"",""images/Red_Circle.png"",""images/Red_Circle.png"",""images/Red_Circle.png"",""images/Red_Circle.png"",""images/Red_Circle.png"",""images/Red_Circle.png"",""images/Red_Circle.png""]","true","[[245,90],[194,21],[111,0],[35,38],[0,116],[23,198],[94,246],[179,237],[239,175]]","true",""
"visual-search-circle","148","2.2.0","377649","79161","visual_search_trial","541","","f","","","","","","","","","","null","red_blue_mix","7","[""images/Red_Triangle.png"",""images/Blue_Circle.png"",""images/Blue_Circle.png"",""images/Red_Circle.png"",""images/Red_Circle.png"",""images/Blue_Circle.png""]","true","[[14,66],[18,191],[129,249],[235,183],[231,58],[120,0]]","true",""
"visual-search-circle","149","2.2.0","379729","79161","visual_search_trial","575","","j","","","","","","","","","","null","blue_triangle","7","[""images/Blue_Triangle.png"",""images/Blue_Triangle.png"",""images/Blue_Triangle.png"",""images/Blue_Triangle.png"",""images/Blue_Triangle.png"",""images/Blue_Triangle.png""]","true","[[32,41],[6,163],[99,247],[217,208],[243,86],[150,2]]","false",""
"visual-search-circle","150","2.2.0","381829","79161","visual_search_trial","595","","j","","","","","","","","","","null","red_circle","7","[""images/Red_Circle.png"",""images/Red_Circle.png"",""images/Red_Circle.png"",""images/Red_Circle.png"",""images/Red_Circle.png"",""images/Red_Circle.png""]","true","[[214,211],[245,90],[155,3],[35,38],[4,159],[94,246]]","false",""
"visual-search-circle","151","2.2.0","383856","79161","visual_search_trial","521","","j","","","","","","","","","","null","blue_triangle","7","[""images/Blue_Triangle.png"",""images/Blue_Triangle.png"",""images/Blue_Triangle.png"",""images/Blue_Triangle.png"",""images/Blue_Triangle.png"",""images/Blue_Triangle.png"",""images/Blue_Triangle.png"",""images/Blue_Triangle.png"",""images/Blue_Triangle.png""]","true","[[7,167],[62,233],[146,248],[220,205],[250,125],[220,44],[146,1],[62,16],[7,82]]","false",""
"visual-search-circle","152","2.2.0","386493","79161","visual_search_trial","1134","","j","","","","","","","","","","null","red_blue_mix","7","[""images/Blue_Triangle.png"",""images/Blue_Triangle.png"",""images/Blue_Circle.png"",""images/Blue_Circle.png"",""images/Red_Circle.png"",""images/Blue_Circle.png""]","true","[[235,66],[129,0],[18,58],[14,183],[120,249],[231,191]]","false",""
"visual-search-circle","153","2.2.0","388616","79161","visual_search_trial","620","","j","","","","","","","","","","null","blue_triangle","7","[""images/Blue_Triangle.png"",""images/Blue_Triangle.png"",""images/Blue_Triangle.png""]","true","[[92,245],[245,92],[36,36]]","false",""
"visual-search-circle","154","2.2.0","390862","79161","visual_search_trial","741","","j","","","","","","","","","","null","red_blue_mix","7","[""images/Blue_Triangle.png"",""images/Blue_Circle.png"",""images/Red_Circle.png"",""images/Blue_Circle.png"",""images/Blue_Circle.png"",""images/Blue_Triangle.png"",""images/Blue_Circle.png"",""images/Blue_Circle.png"",""images/Blue_Triangle.png""]","true","[[207,219],[248,144],[232,60],[165,6],[80,8],[15,64],[2,148],[46,222],[127,249]]","false",""
"visual-search-circle","155","2.2.0","393037","79161","visual_search_trial","671","","f","","","","","","","","","","null","blue_triangle","7","[""images/Red_Triangle.png"",""images/Blue_Triangle.png"",""images/Blue_Triangle.png"",""images/Blue_Triangle.png"",""images/Blue_Triangle.png"",""images/Blue_Triangle.png"",""images/Blue_Triangle.png"",""images/Blue_Triangle.png"",""images/Blue_Triangle.png""]","true","[[165,6],[80,8],[15,64],[2,148],[46,222],[127,249],[207,219],[248,144],[232,60]]","true",""
"visual-search-circle","156","2.2.0","395251","79161","visual_search_trial","710","","f","","","","","","","","","","null","red_circle","7","[""images/Red_Triangle.png"",""images/Red_Circle.png"",""images/Red_Circle.png""]","true","[[17,189],[234,185],[122,0]]","true",""
"visual-search-circle","157","2.2.0","397491","79161","visual_search_trial","734","","f","","","","","","","","","","null","red_blue_mix","7","[""images/Red_Triangle.png"",""images/Blue_Triangle.png"",""images/Blue_Circle.png"",""images/Blue_Circle.png"",""images/Blue_Circle.png"",""images/Red_Circle.png"",""images/Blue_Circle.png"",""images/Red_Circle.png"",""images/Red_Circle.png""]","true","[[208,32],[129,0],[48,26],[2,99],[14,183],[78,240],[163,243],[231,191],[248,107]]","true",""
"visual-search-circle","158","2.2.0","399624","79161","visual_search_trial","629","","f","","","","","","","","","","null","red_circle","7","[""images/Red_Triangle.png"",""images/Red_Circle.png"",""images/Red_Circle.png"",""images/Red_Circle.png"",""images/Red_Circle.png"",""images/Red_Circle.png""]","true","[[0,140],[76,240],[200,224],[249,109],[173,9],[49,25]]","true",""
"visual-search-circle","159","2.2.0","401763","79161","visual_search_trial","634","","f","","","","","","","","","","null","red_blue_mix","7","[""images/Red_Triangle.png"",""images/Red_Circle.png"",""images/Blue_Triangle.png""]","true","[[42,219],[247,148],[84,6]]","true",""
"visual-search-circle","160","2.2.0","403919","79161","visual_search_trial","652","","f","","","","","","","","","","null","blue_triangle","7","[""images/Red_Triangle.png"",""images/Blue_Triangle.png"",""images/Blue_Triangle.png""]","true","[[76,9],[49,224],[249,140]]","true",""
"visual-search-circle","161","2.2.0","406600","79161","visual_search_trial","1178","","j","","","","","","","","","","null","red_circle","7","[""images/Red_Circle.png"",""images/Red_Circle.png"",""images/Red_Circle.png""]","true","[[1,103],[167,242],[205,29]]","false",""
"html-keyboard-response","162","2.1.0","408941","79161","break","2340","<p>Great job so far! Please rest for a few seconds before continuing.</p>
                 <p>Press the <strong>N</strong> key on your keyboard to continue.</p>","n","","","","","","","","","","","","","","","","","N"
"visual-search-circle","163","2.2.0","411495","79161","visual_search_trial","1048","","j","","","","","","","","","","null","red_circle","8","[""images/Red_Circle.png"",""images/Red_Circle.png"",""images/Red_Circle.png"",""images/Red_Circle.png"",""images/Red_Circle.png"",""images/Red_Circle.png"",""images/Red_Circle.png"",""images/Red_Circle.png"",""images/Red_Circle.png""]","true","[[214,38],[138,0],[55,21],[4,90],[10,175],[70,237],[155,246],[226,198],[249,116]]","false",""
"visual-search-circle","164","2.2.0","414640","79161","visual_search_trial","1639","","j","","","","","","","","","","null","red_blue_mix","8","[""images/Blue_Triangle.png"",""images/Blue_Circle.png"",""images/Red_Circle.png"",""images/Red_Circle.png"",""images/Blue_Circle.png"",""images/Red_Circle.png"",""images/Red_Circle.png"",""images/Red_Circle.png"",""images/Blue_Circle.png""]","true","[[11,72],[4,157],[53,227],[135,249],[213,213],[249,135],[227,53],[157,4],[72,11]]","false",""
"visual-search-circle","165","2.2.0","416686","79161","visual_search_trial","542","","f","","","","","","","","","","null","blue_triangle","8","[""images/Red_Triangle.png"",""images/Blue_Triangle.png"",""images/Blue_Triangle.png""]","true","[[92,4],[36,213],[245,157]]","true",""
"visual-search-circle","166","2.2.0","419033","79161","visual_search_trial","842","","f","","","","","","","","","","null","red_blue_mix","8","[""images/Red_Triangle.png"",""images/Blue_Circle.png"",""images/Blue_Circle.png"",""images/Blue_Circle.png"",""images/Red_Circle.png"",""images/Red_Circle.png"",""images/Red_Circle.png"",""images/Blue_Triangle.png"",""images/Blue_Triangle.png""]","true","[[0,125],[29,205],[103,248],[187,233],[242,167],[242,82],[187,16],[103,1],[29,44]]","true",""
"visual-search-circle","167","2.2.0","421145","79161","visual_search_trial","606","","f","","","","","","","","","","null","red_circle","8","[""images/Red_Triangle.png"",""images/Red_Circle.png"",""images/Red_Circle.png"",""images/Red_Circle.png"",""images/Red_Circle.png"",""images/Red_Circle.png"",""images/Red_Circle.png"",""images/Red_Circle.png"",""images/Red_Circle.png""]","true","[[9,173],[68,236],[153,246],[224,200],[249,118],[216,39],[140,0],[56,20],[5,88]]","true",""
"visual-search-circle","168","2.2.0","423304","79161","visual_search_trial","654","","j","","","","","","","","","","null","blue_triangle","8","[""images/Blue_Triangle.png"",""images/Blue_Triangle.png"",""images/Blue_Triangle.png"",""images/Blue_Triangle.png"",""images/Blue_Triangle.png"",""images/Blue_Triangle.png"",""images/Blue_Triangle.png"",""images/Blue_Triangle.png"",""images/Blue_Triangle.png""]","true","[[189,232],[243,165],[241,80],[185,15],[101,2],[27,46],[0,127],[30,207],[105,248]]","false",""
"visual-search-circle","169","2.2.0","425539","79161","visual_search_trial","731","","f","","","","","","","","","","null","red_circle","8","[""images/Red_Triangle.png"",""images/Red_Circle.png"",""images/Red_Circle.png"",""images/Red_Circle.png"",""images/Red_Circle.png"",""images/Red_Circle.png""]","true","[[189,232],[249,122],[185,15],[60,17],[0,127],[64,234]]","true",""
"visual-search-circle","170","2.2.0","427767","79161","visual_search_trial","724","","j","","","","","","","","","","null","red_blue_mix","8","[""images/Blue_Circle.png"",""images/Blue_Triangle.png"",""images/Blue_Triangle.png"",""images/Blue_Circle.png"",""images/Blue_Triangle.png"",""images/Blue_Circle.png""]","true","[[249,131],[193,20],[68,13],[0,118],[56,229],[181,236]]","false",""
"visual-search-circle","171","2.2.0","429855","79161","visual_search_trial","585","","j","","","","","","","","","","null","blue_triangle","8","[""images/Blue_Triangle.png"",""images/Blue_Triangle.png"",""images/Blue_Triangle.png""]","true","[[18,191],[235,183],[120,0]]","false",""
"visual-search-circle","172","2.2.0","431901","79161","visual_search_trial","542","","f","","","","","","","","","","null","red_circle","8","[""images/Red_Triangle.png"",""images/Red_Circle.png"",""images/Red_Circle.png""]","true","[[56,20],[68,236],[249,118]]","true",""
"visual-search-circle","173","2.2.0","434069","79161","visual_search_trial","664","","f","","","","","","","","","","null","red_blue_mix","8","[""images/Red_Triangle.png"",""images/Blue_Triangle.png"",""images/Blue_Circle.png""]","true","[[233,187],[125,0],[16,187]]","true",""
"visual-search-circle","174","2.2.0","436253","79161","visual_search_trial","680","","f","","","","","","","","","","null","blue_triangle","8","[""images/Red_Triangle.png"",""images/Blue_Triangle.png"",""images/Blue_Triangle.png"",""images/Blue_Triangle.png"",""images/Blue_Triangle.png"",""images/Blue_Triangle.png""]","true","[[171,240],[248,142],[201,26],[78,9],[1,107],[48,223]]","true",""
"visual-search-circle","175","2.2.0","438453","79161","visual_search_trial","696","","j","","","","","","","","","","null","red_blue_mix","8","[""images/Blue_Triangle.png"",""images/Red_Circle.png"",""images/Red_Circle.png""]","true","[[247,101],[42,30],[84,243]]","false",""
"visual-search-circle","176","2.2.0","440731","79161","visual_search_trial","773","","j","","","","","","","","","","null","red_circle","8","[""images/Red_Circle.png"",""images/Red_Circle.png"",""images/Red_Circle.png"",""images/Red_Circle.png"",""images/Red_Circle.png"",""images/Red_Circle.png""]","true","[[105,1],[8,80],[27,203],[144,248],[241,169],[222,46]]","false",""
"visual-search-circle","177","2.2.0","443003","79161","visual_search_trial","766","","f","","","","","","","","","","null","blue_triangle","8","[""images/Red_Triangle.png"",""images/Blue_Triangle.png"",""images/Blue_Triangle.png"",""images/Blue_Triangle.png"",""images/Blue_Triangle.png"",""images/Blue_Triangle.png"",""images/Blue_Triangle.png"",""images/Blue_Triangle.png"",""images/Blue_Triangle.png""]","true","[[41,217],[120,249],[201,223],[247,150],[235,66],[171,9],[86,6],[18,58],[1,142]]","true",""
"visual-search-circle","178","2.2.0","445892","79161","visual_search_trial","1386","","j","","","","","","","","","","null","red_circle","8","[""images/Red_Circle.png"",""images/Red_Circle.png"",""images/Red_Circle.png""]","true","[[25,200],[240,173],[109,0]]","false",""
"visual-search-circle","179","2.2.0","448109","79161","visual_search_trial","714","","f","","","","","","","","","","null","red_blue_mix","8","[""images/Red_Triangle.png"",""images/Red_Circle.png"",""images/Blue_Triangle.png"",""images/Blue_Circle.png"",""images/Blue_Circle.png"",""images/Blue_Triangle.png""]","true","[[181,236],[249,131],[193,20],[68,13],[0,118],[56,229]]","true",""
"visual-search-circle","180","2.2.0","450302","79161","visual_search_trial","688","","j","","","","","","","","","","null","blue_triangle","8","[""images/Blue_Triangle.png"",""images/Blue_Triangle.png"",""images/Blue_Triangle.png"",""images/Blue_Triangle.png"",""images/Blue_Triangle.png"",""images/Blue_Triangle.png""]","true","[[53,22],[0,135],[72,238],[196,227],[249,114],[177,11]]","false",""
"visual-search-circle","181","2.2.0","452595","79161","visual_search_trial","788","","f","","","","","","","","","","null","red_blue_mix","9","[""images/Red_Triangle.png"",""images/Blue_Triangle.png"",""images/Blue_Circle.png"",""images/Blue_Circle.png"",""images/Red_Circle.png"",""images/Blue_Triangle.png"",""images/Red_Circle.png"",""images/Red_Circle.png"",""images/Blue_Triangle.png""]","true","[[135,0],[53,22],[4,92],[11,177],[72,238],[157,245],[227,196],[249,114],[213,36]]","true",""
"visual-search-circle","182","2.2.0","455928","79161","visual_search_trial","1828","","f","","","","","","","","","","null","blue_triangle","9","[""images/Red_Triangle.png"",""images/Blue_Triangle.png"",""images/Blue_Triangle.png"",""images/Blue_Triangle.png"",""images/Blue_Triangle.png"",""images/Blue_Triangle.png"",""images/Blue_Triangle.png"",""images/Blue_Triangle.png"",""images/Blue_Triangle.png""]","true","[[135,249],[213,213],[249,135],[227,53],[157,4],[72,11],[11,72],[4,157],[53,227]]","true",""
"visual-search-circle","183","2.2.0","458117","79161","visual_search_trial","685","","f","","","","","","","","","","null","red_circle","9","[""images/Red_Triangle.png"",""images/Red_Circle.png"",""images/Red_Circle.png""]","true","[[249,133],[70,12],[55,228]]","true",""
"visual-search-circle","184","2.2.0","460477","79161","visual_search_trial","855","","j","","","","","","","","","","null","red_blue_mix","9","[""images/Red_Circle.png"",""images/Red_Circle.png"",""images/Blue_Circle.png"",""images/Blue_Triangle.png"",""images/Red_Circle.png"",""images/Blue_Circle.png"",""images/Blue_Triangle.png"",""images/Red_Circle.png"",""images/Red_Circle.png""]","true","[[220,205],[250,125],[220,44],[146,1],[62,16],[7,82],[7,167],[62,233],[146,248]]","false",""
"visual-search-circle","185","2.2.0","462623","79161","visual_search_trial","640","","j","","","","","","","","","","null","blue_triangle","9","[""images/Blue_Triangle.png"",""images/Blue_Triangle.png"",""images/Blue_Triangle.png"",""images/Blue_Triangle.png"",""images/Blue_Triangle.png"",""images/Blue_Triangle.png"",""images/Blue_Triangle.png"",""images/Blue_Triangle.png"",""images/Blue_Triangle.png""]","true","[[249,135],[227,53],[157,4],[72,11],[11,72],[4,157],[53,227],[135,249],[213,213]]","false",""
"visual-search-circle","186","2.2.0","464911","79161","visual_search_trial","782","","f","","","","","","","","","","null","red_blue_mix","9","[""images/Red_Triangle.png"",""images/Red_Circle.png"",""images/Blue_Circle.png"",""images/Blue_Triangle.png"",""images/Blue_Triangle.png"",""images/Blue_Circle.png""]","true","[[249,131],[193,20],[68,13],[0,118],[56,229],[181,236]]","true",""
"visual-search-circle","187","2.2.0","466981","79161","visual_search_trial","567","","j","","","","","","","","","","null","blue_triangle","9","[""images/Blue_Triangle.png"",""images/Blue_Triangle.png"",""images/Blue_Triangle.png"",""images/Blue_Triangle.png"",""images/Blue_Triangle.png"",""images/Blue_Triangle.png""]","true","[[205,29],[82,7],[1,103],[44,220],[167,242],[248,146]]","false",""
"visual-search-circle","188","2.2.0","469540","79161","visual_search_trial","1055","","j","","","","","","","","","","null","red_circle","9","[""images/Red_Circle.png"",""images/Red_Circle.png"",""images/Red_Circle.png""]","true","[[214,211],[155,3],[4,159]]","false",""
"visual-search-circle","189","2.2.0","471759","79161","visual_search_trial","715","","j","","","","","","","","","","null","blue_triangle","9","[""images/Blue_Triangle.png"",""images/Blue_Triangle.png"",""images/Blue_Triangle.png""]","true","[[140,249],[224,49],[9,76]]","false",""
"visual-search-circle","190","2.2.0","474014","79161","visual_search_trial","752","","j","","","","","","","","","","null","red_circle","9","[""images/Red_Circle.png"",""images/Red_Circle.png"",""images/Red_Circle.png"",""images/Red_Circle.png"",""images/Red_Circle.png"",""images/Red_Circle.png"",""images/Red_Circle.png"",""images/Red_Circle.png"",""images/Red_Circle.png""]","true","[[0,140],[39,216],[118,249],[200,224],[246,153],[236,68],[173,9],[88,5],[20,56]]","false",""
"visual-search-circle","191","2.2.0","476296","79161","visual_search_trial","779","","j","","","","","","","","","","null","red_blue_mix","9","[""images/Blue_Triangle.png"",""images/Blue_Triangle.png"",""images/Blue_Triangle.png""]","true","[[14,66],[129,249],[231,58]]","false",""
"visual-search-circle","192","2.2.0","478581","79161","visual_search_trial","780","","f","","","","","","","","","","null","red_circle","9","[""images/Red_Triangle.png"",""images/Red_Circle.png"",""images/Red_Circle.png"",""images/Red_Circle.png"",""images/Red_Circle.png"",""images/Red_Circle.png"",""images/Red_Circle.png"",""images/Red_Circle.png"",""images/Red_Circle.png""]","true","[[66,235],[150,247],[223,201],[249,120],[217,41],[142,1],[58,18],[6,86],[9,171]]","true",""
"visual-search-circle","193","2.2.0","480673","79161","visual_search_trial","589","","f","","","","","","","","","","null","blue_triangle","9","[""images/Red_Triangle.png"",""images/Blue_Triangle.png"",""images/Blue_Triangle.png"",""images/Blue_Triangle.png"",""images/Blue_Triangle.png"",""images/Blue_Triangle.png""]","true","[[250,125],[187,16],[62,16],[0,125],[62,233],[187,233]]","true",""
"visual-search-circle","194","2.2.0","482738","79161","visual_search_trial","560","","j","","","","","","","","","","null","red_circle","9","[""images/Red_Circle.png"",""images/Red_Circle.png"",""images/Red_Circle.png"",""images/Red_Circle.png"",""images/Red_Circle.png"",""images/Red_Circle.png""]","true","[[248,144],[203,27],[80,8],[1,105],[46,222],[169,241]]","false",""
"visual-search-circle","195","2.2.0","484767","79161","visual_search_trial","526","","f","","","","","","","","","","null","red_blue_mix","9","[""images/Red_Triangle.png"",""images/Blue_Triangle.png"",""images/Red_Circle.png""]","true","[[18,191],[235,183],[120,0]]","true",""
"visual-search-circle","196","2.2.0","487050","79161","visual_search_trial","780","","f","","","","","","","","","","null","blue_triangle","9","[""images/Red_Triangle.png"",""images/Blue_Triangle.png"",""images/Blue_Triangle.png""]","true","[[244,161],[96,3],[33,210]]","true",""
"visual-search-circle","197","2.2.0","489434","79161","visual_search_trial","880","","j","","","","","","","","","","null","red_blue_mix","9","[""images/Blue_Triangle.png"",""images/Blue_Circle.png"",""images/Red_Circle.png"",""images/Red_Circle.png"",""images/Blue_Circle.png"",""images/Red_Circle.png""]","true","[[6,84],[30,207],[148,247],[243,165],[219,42],[101,2]]","false",""
"visual-search-circle","198","2.2.0","491586","79161","visual_search_trial","648","","f","","","","","","","","","","null","red_circle","9","[""images/Red_Triangle.png"",""images/Red_Circle.png"",""images/Red_Circle.png"",""images/Red_Circle.png"",""images/Red_Circle.png"",""images/Red_Circle.png""]","true","[[13,181],[118,249],[229,193],[236,68],[131,0],[20,56]]","true",""
"html-keyboard-response","199","2.1.0","580994","79161","break","89407","<p>Great job so far! Please rest for a few seconds before continuing.</p>
                 <p>Press the <strong>C</strong> key on your keyboard to continue.</p>","c","","","","","","","","","","","","","","","","","C"
"visual-search-circle","200","2.2.0","585395","79161","visual_search_trial","2896","","f","","","","","","","","","","null","red_blue_mix","10","[""images/Red_Triangle.png"",""images/Blue_Triangle.png"",""images/Red_Circle.png"",""images/Blue_Circle.png"",""images/Blue_Circle.png"",""images/Red_Circle.png"",""images/Red_Circle.png"",""images/Red_Circle.png"",""images/Blue_Circle.png""]","true","[[1,103],[16,187],[82,242],[167,242],[233,187],[248,103],[205,29],[125,0],[44,29]]","true",""
"visual-search-circle","201","2.2.0","587463","79161","visual_search_trial","562","","j","","","","","","","","","","null","blue_triangle","10","[""images/Blue_Triangle.png"",""images/Blue_Triangle.png"",""images/Blue_Triangle.png"",""images/Blue_Triangle.png"",""images/Blue_Triangle.png"",""images/Blue_Triangle.png"",""images/Blue_Triangle.png"",""images/Blue_Triangle.png"",""images/Blue_Triangle.png""]","true","[[167,7],[82,7],[16,62],[1,146],[44,220],[125,250],[205,220],[248,146],[233,62]]","false",""
"visual-search-circle","202","2.2.0","589665","79161","visual_search_trial","699","","f","","","","","","","","","","null","red_circle","10","[""images/Red_Triangle.png"",""images/Red_Circle.png"",""images/Red_Circle.png""]","true","[[220,205],[146,1],[7,167]]","true",""
"visual-search-circle","203","2.2.0","591857","79161","visual_search_trial","687","","f","","","","","","","","","","null","blue_triangle","10","[""images/Red_Triangle.png"",""images/Blue_Triangle.png"",""images/Blue_Triangle.png""]","true","[[1,103],[167,242],[205,29]]","true",""
"visual-search-circle","204","2.2.0","593964","79161","visual_search_trial","605","","j","","","","","","","","","","null","red_blue_mix","10","[""images/Blue_Triangle.png"",""images/Blue_Circle.png"",""images/Blue_Triangle.png""]","true","[[32,208],[243,163],[99,2]]","false",""
"visual-search-circle","205","2.2.0","596137","79161","visual_search_trial","667","","j","","","","","","","","","","null","red_circle","10","[""images/Red_Circle.png"",""images/Red_Circle.png"",""images/Red_Circle.png"",""images/Red_Circle.png"",""images/Red_Circle.png"",""images/Red_Circle.png"",""images/Red_Circle.png"",""images/Red_Circle.png"",""images/Red_Circle.png""]","true","[[68,13],[9,76],[5,161],[56,229],[140,249],[216,210],[249,131],[224,49],[153,3]]","false",""
"visual-search-circle","206","2.2.0","599234","79161","visual_search_trial","1593","","j","","","","","","","","","","null","blue_triangle","10","[""images/Blue_Triangle.png"",""images/Blue_Triangle.png"",""images/Blue_Triangle.png""]","true","[[38,35],[90,245],[246,94]]","false",""
"visual-search-circle","207","2.2.0","601376","79161","visual_search_trial","636","","f","","","","","","","","","","null","red_circle","10","[""images/Red_Triangle.png"",""images/Red_Circle.png"",""images/Red_Circle.png"",""images/Red_Circle.png"",""images/Red_Circle.png"",""images/Red_Circle.png"",""images/Red_Circle.png"",""images/Red_Circle.png"",""images/Red_Circle.png""]","true","[[4,157],[53,227],[135,249],[213,213],[249,135],[227,53],[157,4],[72,11],[11,72]]","true",""
"visual-search-circle","208","2.2.0","603454","79161","visual_search_trial","574","","f","","","","","","","","","","null","red_blue_mix","10","[""images/Red_Triangle.png"",""images/Blue_Triangle.png"",""images/Red_Circle.png""]","true","[[74,10],[51,226],[249,138]]","true",""
"visual-search-circle","209","2.2.0","605727","79161","visual_search_trial","769","","f","","","","","","","","","","null","blue_triangle","10","[""images/Red_Triangle.png"",""images/Blue_Triangle.png"",""images/Blue_Triangle.png"",""images/Blue_Triangle.png"",""images/Blue_Triangle.png"",""images/Blue_Triangle.png""]","true","[[125,250],[233,187],[233,62],[125,0],[16,62],[16,187]]","true",""
"visual-search-circle","210","2.2.0","607958","79161","visual_search_trial","728","","j","","","","","","","","","","null","red_circle","10","[""images/Red_Circle.png"",""images/Red_Circle.png"",""images/Red_Circle.png"",""images/Red_Circle.png"",""images/Red_Circle.png"",""images/Red_Circle.png""]","true","[[9,171],[107,248],[223,201],[240,78],[142,1],[26,48]]","false",""
"visual-search-circle","211","2.2.0","610745","79161","visual_search_trial","1282","","f","","","","","","","","","","null","red_blue_mix","10","[""images/Red_Triangle.png"",""images/Red_Circle.png"",""images/Blue_Triangle.png"",""images/Red_Circle.png"",""images/Blue_Triangle.png"",""images/Blue_Circle.png""]","true","[[245,159],[214,38],[94,3],[4,90],[35,211],[155,246]]","true",""
"visual-search-circle","212","2.2.0","612809","79161","visual_search_trial","559","","f","","","","","","","","","","null","red_circle","10","[""images/Red_Triangle.png"",""images/Red_Circle.png"",""images/Red_Circle.png"",""images/Red_Circle.png"",""images/Red_Circle.png"",""images/Red_Circle.png""]","true","[[222,203],[241,80],[144,1],[27,46],[8,169],[105,248]]","true",""
"visual-search-circle","213","2.2.0","614901","79161","visual_search_trial","587","","j","","","","","","","","","","null","blue_triangle","10","[""images/Blue_Triangle.png"",""images/Blue_Triangle.png"",""images/Blue_Triangle.png"",""images/Blue_Triangle.png"",""images/Blue_Triangle.png"",""images/Blue_Triangle.png""]","true","[[0,131],[68,236],[193,229],[249,118],[181,13],[56,20]]","false",""
"visual-search-circle","214","2.2.0","617538","79161","visual_search_trial","1133","","j","","","","","","","","","","null","red_blue_mix","10","[""images/Red_Circle.png"",""images/Blue_Circle.png"",""images/Red_Circle.png"",""images/Red_Circle.png"",""images/Blue_Triangle.png"",""images/Blue_Triangle.png""]","true","[[20,56],[13,181],[118,249],[229,193],[236,68],[131,0]]","false",""
"visual-search-circle","215","2.2.0","619696","79161","visual_search_trial","652","","f","","","","","","","","","","null","blue_triangle","10","[""images/Red_Triangle.png"",""images/Blue_Triangle.png"",""images/Blue_Triangle.png"",""images/Blue_Triangle.png"",""images/Blue_Triangle.png"",""images/Blue_Triangle.png"",""images/Blue_Triangle.png"",""images/Blue_Triangle.png"",""images/Blue_Triangle.png""]","true","[[103,248],[187,233],[242,167],[242,82],[187,16],[103,1],[29,44],[0,124],[29,205]]","true",""
"visual-search-circle","216","2.2.0","622446","79161","visual_search_trial","1245","","j","","","","","","","","","","null","red_blue_mix","10","[""images/Blue_Triangle.png"",""images/Blue_Triangle.png"",""images/Red_Circle.png"",""images/Red_Circle.png"",""images/Blue_Triangle.png"",""images/Red_Circle.png"",""images/Red_Circle.png"",""images/Red_Circle.png"",""images/Blue_Circle.png""]","true","[[220,44],[146,1],[62,16],[7,82],[7,167],[62,233],[146,248],[220,205],[250,125]]","false",""
"visual-search-circle","217","2.2.0","624722","79161","visual_search_trial","773","","j","","","","","","","","","","null","red_circle","10","[""images/Red_Circle.png"",""images/Red_Circle.png"",""images/Red_Circle.png""]","true","[[205,29],[1,103],[167,242]]","false",""
"visual-search-circle","218","2.2.0","626765","79161","visual_search_trial","540","","f","","","","","","","","","","null","blue_triangle","11","[""images/Red_Triangle.png"",""images/Blue_Triangle.png"",""images/Blue_Triangle.png""]","true","[[53,22],[72,238],[249,114]]","true",""
"visual-search-circle","219","2.2.0","628912","79161","visual_search_trial","642","","f","","","","","","","","","","null","red_blue_mix","11","[""images/Red_Triangle.png"",""images/Blue_Triangle.png"",""images/Red_Circle.png"",""images/Blue_Circle.png"",""images/Blue_Triangle.png"",""images/Blue_Triangle.png"",""images/Red_Circle.png"",""images/Blue_Circle.png"",""images/Blue_Circle.png""]","true","[[2,99],[14,183],[78,240],[163,243],[231,191],[248,107],[208,32],[129,0],[48,26]]","true",""
"visual-search-circle","220","2.2.0","631035","79161","visual_search_trial","617","","f","","","","","","","","","","null","red_circle","11","[""images/Red_Triangle.png"",""images/Red_Circle.png"",""images/Red_Circle.png"",""images/Red_Circle.png"",""images/Red_Circle.png"",""images/Red_Circle.png"",""images/Red_Circle.png"",""images/Red_Circle.png"",""images/Red_Circle.png""]","true","[[241,80],[185,15],[101,2],[27,46],[0,127],[30,207],[105,248],[189,232],[243,165]]","true",""
"visual-search-circle","221","2.2.0","633107","79161","visual_search_trial","567","","f","","","","","","","","","","null","red_blue_mix","11","[""images/Red_Triangle.png"",""images/Red_Circle.png"",""images/Blue_Circle.png"",""images/Blue_Circle.png"",""images/Red_Circle.png"",""images/Red_Circle.png""]","true","[[194,21],[70,12],[0,116],[55,228],[179,237],[249,133]]","true",""
"visual-search-circle","222","2.2.0","635071","79161","visual_search_trial","459","","f","","","","","","","","","","null","red_circle","11","[""images/Red_Triangle.png"",""images/Red_Circle.png"",""images/Red_Circle.png"",""images/Red_Circle.png"",""images/Red_Circle.png"",""images/Red_Circle.png""]","true","[[177,11],[53,22],[0,135],[72,238],[196,227],[249,114]]","true",""
"visual-search-circle","223","2.2.0","637344","79161","visual_search_trial","769","","j","","","","","","","","","","null","red_blue_mix","11","[""images/Red_Circle.png"",""images/Blue_Circle.png"",""images/Blue_Triangle.png"",""images/Blue_Circle.png"",""images/Blue_Triangle.png"",""images/Blue_Triangle.png""]","true","[[96,3],[5,88],[33,210],[153,246],[244,161],[216,39]]","false",""
"visual-search-circle","224","2.2.0","639980","79161","visual_search_trial","1131","","f","","","","","","","","","","null","blue_triangle","11","[""images/Red_Triangle.png"",""images/Blue_Triangle.png"",""images/Blue_Triangle.png"",""images/Blue_Triangle.png"",""images/Blue_Triangle.png"",""images/Blue_Triangle.png""]","true","[[231,191],[235,66],[129,0],[18,58],[14,183],[120,249]]","true",""
"visual-search-circle","225","2.2.0","642237","79161","visual_search_trial","753","","j","","","","","","","","","","null","red_circle","11","[""images/Red_Circle.png"",""images/Red_Circle.png"",""images/Red_Circle.png""]","true","[[38,214],[246,155],[90,4]]","false",""
"visual-search-circle","226","2.2.0","645651","79161","visual_search_trial","1910","","j","","","","","","","","","","null","red_blue_mix","11","[""images/Blue_Circle.png"",""images/Blue_Circle.png"",""images/Blue_Circle.png"",""images/Blue_Triangle.png"",""images/Blue_Triangle.png"",""images/Red_Circle.png"",""images/Red_Circle.png"",""images/Blue_Circle.png"",""images/Red_Circle.png""]","true","[[185,15],[101,2],[27,46],[0,127],[30,207],[105,248],[189,232],[243,165],[241,80]]","false",""
"visual-search-circle","227","2.2.0","647816","79161","visual_search_trial","662","","j","","","","","","","","","","null","blue_triangle","11","[""images/Blue_Triangle.png"",""images/Blue_Triangle.png"",""images/Blue_Triangle.png""]","true","[[249,135],[72,11],[53,227]]","false",""
"visual-search-circle","228","2.2.0","650071","79161","visual_search_trial","751","","j","","","","","","","","","","null","red_blue_mix","11","[""images/Red_Circle.png"",""images/Blue_Triangle.png"",""images/Blue_Triangle.png""]","true","[[3,155],[211,214],[159,4]]","false",""
"visual-search-circle","229","2.2.0","654236","79161","visual_search_trial","2661","","j","","","","","","","","","","null","red_circle","11","[""images/Red_Circle.png"",""images/Red_Circle.png"",""images/Red_Circle.png"",""images/Red_Circle.png"",""images/Red_Circle.png"",""images/Red_Circle.png""]","true","[[169,8],[46,27],[1,144],[80,241],[203,222],[248,105]]","false",""
"visual-search-circle","230","2.2.0","657754","79161","visual_search_trial","2014","","j","","","","","","","","","","null","blue_triangle","11","[""images/Blue_Triangle.png"",""images/Blue_Triangle.png"",""images/Blue_Triangle.png"",""images/Blue_Triangle.png"",""images/Blue_Triangle.png"",""images/Blue_Triangle.png"",""images/Blue_Triangle.png"",""images/Blue_Triangle.png"",""images/Blue_Triangle.png""]","true","[[6,86],[9,171],[66,235],[150,247],[223,201],[249,120],[217,41],[142,1],[58,18]]","false",""
"visual-search-circle","231","2.2.0","660090","79161","visual_search_trial","832","","f","","","","","","","","","","null","red_circle","11","[""images/Red_Triangle.png"",""images/Red_Circle.png"",""images/Red_Circle.png""]","true","[[153,246],[216,39],[5,88]]","true",""
"visual-search-circle","232","2.2.0","663649","79161","visual_search_trial","2054","","f","","","","","","","","","","null","blue_triangle","11","[""images/Red_Triangle.png"",""images/Blue_Triangle.png"",""images/Blue_Triangle.png"",""images/Blue_Triangle.png"",""images/Blue_Triangle.png"",""images/Blue_Triangle.png"",""images/Blue_Triangle.png"",""images/Blue_Triangle.png"",""images/Blue_Triangle.png""]","true","[[237,179],[246,94],[198,23],[116,0],[38,35],[0,111],[21,194],[90,245],[175,239]]","true",""
"visual-search-circle","233","2.2.0","666004","79161","visual_search_trial","849","","j","","","","","","","","","","null","red_circle","11","[""images/Red_Circle.png"",""images/Red_Circle.png"",""images/Red_Circle.png"",""images/Red_Circle.png"",""images/Red_Circle.png"",""images/Red_Circle.png"",""images/Red_Circle.png"",""images/Red_Circle.png"",""images/Red_Circle.png""]","true","[[0,122],[27,203],[101,247],[185,234],[241,169],[243,84],[189,17],[105,1],[30,42]]","false",""
"visual-search-circle","234","2.2.0","668239","79161","visual_search_trial","732","","f","","","","","","","","","","null","red_blue_mix","11","[""images/Red_Triangle.png"",""images/Blue_Triangle.png"",""images/Red_Circle.png""]","true","[[116,249],[237,70],[21,55]]","true",""
