"trial_type","trial_index","plugin_version","time_elapsed","sona_id","phase","rt","stimulus","response","consented","required_key","view_history","question_order","success","timeout","failed_images","failed_audio","failed_video","set_size","distractor_type","block","stimuli_list","correct","locations","target_present","break_key"
"pavlovia","0","null","919","79142","","","","","","","","","","","","","","","","","","","","",""
"html-button-response","1","2.1.0","53570","79142","informed_consent","52648","
    <div style=""max-width: 900px; margin: 0 auto; padding: 20px; text-align: left; line-height: 1.6;"">
      <h1 style=""text-align: center; color: #333; font-size: 24px; margin-bottom: 10px; font-weight: bold;"">
        INFORMED CONSENT INFORMATION
      </h1>
      <h2 style=""text-align: center; color: #333; font-size: 22px; margin-bottom: 20px; font-weight: bold;"">
        FOR RESEARCH PARTICIPATION
      </h2>
      
      <p style=""margin-bottom: 10px;""><strong>Study Title:</strong> The Effects of Mindfulness and Attention on Life Satisfaction and Memory</p>
      <p style=""margin-bottom: 10px;""><strong>Principal Investigator:</strong> Ella Bremmer</p>
      <p style=""margin-bottom: 10px;""><strong>Co-Principal Investigator:</strong> Dr. Gregory Cox</p>
      <p style=""margin-bottom: 20px;""><strong>IRB Study Number:</strong> STUDY00006288</p>

      <p style=""margin-bottom: 15px;"">I am a student at the University at Albany, in the Department of Psychology. I am planning to conduct a research study, which I invite you to take part in.</p>
      
      <p style=""margin-bottom: 25px;"">This form has important information about the reasons for doing this study, what we will ask you to do, and the way we would like to use the information we collect about you.</p>

      <h3 style=""color: #333; font-size: 18px; margin-top: 25px; margin-bottom: 10px; font-weight: bold;"">
        Why are you doing this study?
      </h3>
      <p style=""margin-bottom: 15px;"">You are being asked to participate in a research study that aims to understand if there is a relationship between mindfulness, the ability to pay attention, and life satisfaction.</p>
      
      <p style=""margin-bottom: 25px;"">The purpose of this study is to investigate if having better control over one's attention influences overall life satisfaction. Your participation will help us better understand if mindfulness and attention do have a significant effect on life satisfaction (i.e., how people feel about their lives overall). Then you will be asked to perform a conjunction visual search task to test your capacity to direct your attention over a sustained period.</p>

      <h3 style=""color: #333; font-size: 18px; margin-top: 25px; margin-bottom: 10px; font-weight: bold;"">
        Why am I eligible to participate in this study?
      </h3>
      <p style=""margin-bottom: 25px;"">You are eligible to participate because you are a student at UAlbany, are at least 18 years old, and are proficient in English.</p>

      <h3 style=""color: #333; font-size: 18px; margin-top: 25px; margin-bottom: 10px; font-weight: bold;"">
        What will I do if I choose to be in this study?
      </h3>
      <p style=""margin-bottom: 10px;"">If you choose to take part in our study, you will do the following:</p>
      <p style=""margin-bottom: 8px; margin-left: 20px;"">1. Read and agree to the informed consent.</p>
      <p style=""margin-bottom: 8px; margin-left: 40px;"">a. If you choose not to agree to the informed consent, you will be taken back to the SONA site.</p>
      <p style=""margin-bottom: 8px; margin-left: 20px;"">2. Complete a demographic questionnaire that asks about your age, English proficiency, gender, and race.</p>
      <p style=""margin-bottom: 8px; margin-left: 20px;"">3. Read instructions for the visual search task, which asks you to indicate if a target (a red triangle) is present among various other colored shapes. You should press the ""F"" key if a red triangle is present, or the ""J"" key if the target is absent.</p>
      <p style=""margin-bottom: 8px; margin-left: 20px;"">4. You will be asked to respond to 270 visual search trials, whith the opportunity to take short breaks as you go</p>
      <p style=""margin-bottom: 8px; margin-left: 20px;"">5. You will complete the Mindfulness Attention Awareness Scale (MAAS), the Satisfaction With Life Scale (SWLS), and the Big Five Inventory.</p>
      <p style=""margin-bottom: 25px; margin-left: 20px;"">6.	After all questionnaires are completed, participants will be thanked for their time and will be provided the study debriefing. Following the debriefing, you will be sent back to the SONA research site.</p>

      <h3 style=""color: #333; font-size: 18px; margin-top: 25px; margin-bottom: 10px; font-weight: bold;"">
        For how long will I participate?
      </h3>
      <p style=""margin-bottom: 25px;"">This study is a single online session that you can complete on a computer. The study can be completed in less than 30 minutes but could require as long as 45 minutes to complete.</p>

      <h3 style=""color: #333; font-size: 18px; margin-top: 25px; margin-bottom: 10px; font-weight: bold;"">
        Where will I need to go to participate?
      </h3>
      <p style=""margin-bottom: 25px;"">All study procedures will take place online and can be completed wherever you have internet connection.</p>

      <h3 style=""color: #333; font-size: 18px; margin-top: 25px; margin-bottom: 10px; font-weight: bold;"">
        Are there any costs I should be aware of?
      </h3>
      <p style=""margin-bottom: 25px;"">Participation is not expected to incur cost to participants. Free internet access is available anywhere on campus and in the university library.</p>

      <h3 style=""color: #333; font-size: 18px; margin-top: 25px; margin-bottom: 10px; font-weight: bold;"">
        What are the possible risks or discomforts?
      </h3>
      <p style=""margin-bottom: 15px;"">As with all research, there is a chance that confidentiality of the information we collect from you could be breached – we will take steps to minimize this risk, as discussed in more detail below.</p>
      
      <p style=""margin-bottom: 25px;"">The risks associated with participating in this study are minimal; however, you may experience mild discomfort when reflecting on your mindfulness or life satisfaction when answering questionnaires in the study. To help minimize this, you can withdraw from the study at any time without any consequences. The study will take place online, and you will have the opportunity to take breaks while completing the survey to reduce the risk of eye strain associated with the use of electronic devices.</p>

      <h3 style=""color: #333; font-size: 18px; margin-top: 25px; margin-bottom: 10px; font-weight: bold;"">
        What are the possible benefits for me or others?
      </h3>
      <p style=""margin-bottom: 25px;"">While there are no direct personal benefits to participants of this study, you may find value in reflecting on your mindfulness, attention, and its impact on life satisfaction by completing this survey. The data you contribute may help advance society's understanding of how mindfulness and attention relate to overall well-being, potentially informing future programs or interventions aimed at improving student mental health, attention, and life satisfaction.</p>

      <h3 style=""color: #333; font-size: 18px; margin-top: 25px; margin-bottom: 10px; font-weight: bold;"">
        Will I receive compensation for my participation?
      </h3>
      <p style=""margin-bottom: 25px;"">SONA partial class credit will be awarded via the Psychology Department SONA research pool after you complete the survey in its entirety. Participants who withdraw before completing the survey will not receive partial credit. You will not receive monetary compensation for your participation in this study.</p>

      <h3 style=""color: #333; font-size: 18px; margin-top: 25px; margin-bottom: 10px; font-weight: bold;"">
        How will you protect the information you collect about me, and how will that information be shared?
      </h3>
      <p style=""margin-bottom: 15px;"">Results of this study may be used in publications and presentations. Your data will be handled as confidentially as possible, and no identifiable information will be collected to link your data back to you. If results of this study are published or presented, only de-identified summaries of data will be used.</p>
      
      <p style=""margin-bottom: 25px;"">To minimize the risks to confidentiality, all data will be collected anonymously via Pavlovia.org which uses encryption to protect information (https://pavlovia.org/docs/home/ethics). Only the student researcher (Ella Bremmer), mentor (Pierce Johnson), and faculty advisor (Gregory Cox) will have password-protected access to the data. Data will be stored on secure, university approved computers.</p>

      <h3 style=""color: #333; font-size: 18px; margin-top: 25px; margin-bottom: 10px; font-weight: bold;"">
        Will my data be used in future research?
      </h3>
      <p style=""margin-bottom: 25px;"">No personal identifiers will be collected in the data you provide us. Data will not be used in future research, and will be deleted after the required retention period.</p>

      <h3 style=""color: #333; font-size: 18px; margin-top: 25px; margin-bottom: 10px; font-weight: bold;"">
        What are my rights as a research participant?
      </h3>
      <p style=""margin-bottom: 15px;"">Participation in this study is voluntary. You do not have to answer any question you do not want to answer. If at any time and for any reason, you would prefer not to participate in this study, please feel free not to. If at any time you would like to stop participating, you are welcome to stop. You can take a break or stop altogether. You may withdraw from this study at any time, and you will not be penalized in any way for deciding to stop participation.</p>
      
      <p style=""margin-bottom: 25px;"">If you decide to withdraw from this study, any information collected from you before withdrawing will not be used, and your data will be deleted.</p>

      <h3 style=""color: #333; font-size: 18px; margin-top: 25px; margin-bottom: 10px; font-weight: bold;"">
        What if I am a University at Albany student or employee?
      </h3>
      <p style=""margin-bottom: 25px;"">You may choose not to participate or to stop participating in this research at any time. This will not affect your class standing, grades, employment, or any other aspects of your relationship with the University at Albany.</p>

      <h3 style=""color: #333; font-size: 18px; margin-top: 25px; margin-bottom: 10px; font-weight: bold;"">
        Who can I contact if I have questions or concerns about this research study?
      </h3>
      <p style=""margin-bottom: 15px;"">If you have questions, please feel free to stop and email the investigator, Ella Bremmer (ebremmer@albany.edu) or advisors, Pierce Johnson (pjohnson4@albany.edu) and Dr. Greg Cox (gecox@albany.edu). If you have questions later, you may also contact the researchers.</p>
      
      <p style=""margin-bottom: 10px;"">If you have any questions about your rights as a participant in this research, you can contact the following office at the University at Albany:</p>
      
      <p style=""margin-bottom: 5px; margin-left: 20px;"">Institutional Review Board</p>
      <p style=""margin-bottom: 5px; margin-left: 20px;"">University at Albany</p>
      <p style=""margin-bottom: 5px; margin-left: 20px;"">Office of Regulatory and Research Compliance</p>
      <p style=""margin-bottom: 5px; margin-left: 20px;"">1400 Washington Ave, Biology 227</p>
      <p style=""margin-bottom: 5px; margin-left: 20px;"">Albany, NY 12222</p>
      <p style=""margin-bottom: 5px; margin-left: 20px;"">Phone: 1-866-857-5459</p>
      <p style=""margin-bottom: 25px; margin-left: 20px;"">Email: rco@albany.edu</p>

      <h3 style=""color: #333; font-size: 18px; margin-top: 30px; margin-bottom: 10px; font-weight: bold;"">
        Consent
      </h3>
      <p style=""margin-bottom: 20px;"">I have read this form and the research study has been explained to me. I have been given the opportunity to ask questions and my questions have been answered. If I have additional questions, I have been told whom to contact. I agree to participate in the research study described above. I understand that I have the opportunity to download and save a copy of this form for my records.</p>

      <div style=""background-color: #f9f9f9; border: 2px solid #4CAF50; border-radius: 5px; padding: 20px; margin-top: 20px; margin-bottom: 20px;"">
        <p style=""margin-bottom: 15px; font-weight: bold;"">To save a copy of this consent form for your records, press Ctrl+P (Windows/Linux) or Cmd+P (Mac) and select ""Save as PDF"".</p>
        <p style=""margin-bottom: 0; font-weight: bold;"">By clicking ""I Agree"" below, I confirm that I agree to participate in the research study described above, and that doing so serves as my written signature consenting to take part in the study.</p>
      </div>
    </div>
  ","0","true","","","","","","","","","","","","","","","",""
"instructions","3","2.1.0","62290","79142","intro_instructions","8718","","","","f","[{""page_index"":0,""viewing_time"":8718}]","","","","","","","","","","","","","",""
"html-keyboard-response","4","2.1.0","64293","79142","intermediate_slide_demo","null","<p style=""font-size:4vw"">Demographic Questionnaire</p>","null","","","","","","","","","","","","","","","","",""
"survey-multi-choice","5","2.1.0","69671","79142","demographics_english","5374","","{""english"":""Strongly agree""}","","","","[0]","","","","","","","","","","","","",""
"survey-text","7","2.1.0","73910","79142","demographics_age","4215","","{""age"":""24""}","","","","","","","","","","","","","","","","",""
"survey-multi-select","9","2.1.0","78959","79142","demographics_gender","5044","","{""gender"":[""Woman""]}","","","","[0]","","","","","","","","","","","","",""
"survey-multi-choice","11","2.1.0","82611","79142","demographics_race","3650","","{""race"":""Asian or Pacific Islander""}","","","","[0]","","","","","","","","","","","","",""
"html-keyboard-response","12","2.1.0","84614","79142","intermediate_slide_VS","null","<p style=""font-size:4vw"">Visual Search Task</p>","null","","","","","","","","","","","","","","","","",""
"preload","13","2.1.0","84931","79142","image_preload","","","","","","","","true","false","[]","[]","[]","","","","","","","",""
"html-button-response","14","2.1.0","97711","79142","vs_instructions","12779","<p>On the following screens, you will see a series of colored shapes (triangles, squares, and circles) appear.</p>
    <p>Please Press 'F' if there <strong>is</strong> a red triangle among the shapes you see.</p>
    <p>Press 'J' if there is <strong>not</strong> a red triangle among the shapes you see.</p>","0","","","","","","","","","","","","","","","","",""
"visual-search-circle","15","2.2.0","101093","79142","visual_search_trial","1875","","f","","","","","","","","","","null","red_blue_mix","0","[""images/Red_Triangle.png"",""images/Red_Circle.png"",""images/Blue_Triangle.png""]","true","[[177,238],[196,22],[0,114]]","true",""
"visual-search-circle","16","2.2.0","103410","79142","visual_search_trial","812","","f","","","","","","","","","","null","blue_triangle","0","[""images/Red_Triangle.png"",""images/Blue_Triangle.png"",""images/Blue_Triangle.png"",""images/Blue_Triangle.png"",""images/Blue_Triangle.png"",""images/Blue_Triangle.png""]","true","[[88,244],[210,216],[246,96],[161,5],[39,33],[3,153]]","true",""
"visual-search-circle","17","2.2.0","106054","79142","visual_search_trial","1136","","f","","","","","","","","","","null","red_blue_mix","0","[""images/Red_Triangle.png"",""images/Blue_Triangle.png"",""images/Red_Circle.png"",""images/Blue_Triangle.png"",""images/Blue_Triangle.png"",""images/Blue_Circle.png"",""images/Blue_Triangle.png"",""images/Red_Circle.png"",""images/Blue_Circle.png""]","true","[[249,120],[217,41],[142,1],[58,18],[6,86],[9,171],[66,235],[150,247],[223,201]]","true",""
"visual-search-circle","18","2.2.0","108980","79142","visual_search_trial","1419","","j","","","","","","","","","","null","red_circle","0","[""images/Red_Circle.png"",""images/Red_Circle.png"",""images/Red_Circle.png"",""images/Red_Circle.png"",""images/Red_Circle.png"",""images/Red_Circle.png"",""images/Red_Circle.png"",""images/Red_Circle.png"",""images/Red_Circle.png""]","true","[[223,48],[150,2],[66,14],[9,78],[6,163],[58,231],[142,248],[217,208],[249,129]]","false",""
"visual-search-circle","19","2.2.0","111579","79142","visual_search_trial","1092","","j","","","","","","","","","","null","red_blue_mix","0","[""images/Red_Circle.png"",""images/Blue_Circle.png"",""images/Blue_Circle.png"",""images/Blue_Circle.png"",""images/Blue_Circle.png"",""images/Blue_Triangle.png"",""images/Red_Circle.png"",""images/Red_Circle.png"",""images/Blue_Circle.png""]","true","[[189,17],[105,1],[30,42],[0,122],[27,203],[101,247],[185,234],[241,169],[243,84]]","false",""
"visual-search-circle","20","2.2.0","113923","79142","visual_search_trial","837","","j","","","","","","","","","","null","blue_triangle","0","[""images/Blue_Triangle.png"",""images/Blue_Triangle.png"",""images/Blue_Triangle.png"",""images/Blue_Triangle.png"",""images/Blue_Triangle.png"",""images/Blue_Triangle.png"",""images/Blue_Triangle.png"",""images/Blue_Triangle.png"",""images/Blue_Triangle.png""]","true","[[6,86],[9,171],[66,235],[150,247],[223,201],[249,120],[217,41],[142,1],[58,18]]","false",""
"visual-search-circle","21","2.2.0","116233","79142","visual_search_trial","805","","f","","","","","","","","","","null","red_blue_mix","0","[""images/Red_Triangle.png"",""images/Blue_Circle.png"",""images/Blue_Circle.png"",""images/Blue_Triangle.png"",""images/Blue_Triangle.png"",""images/Blue_Circle.png""]","true","[[226,51],[111,0],[10,74],[23,198],[138,249],[239,175]]","true",""
"visual-search-circle","22","2.2.0","118379","79142","visual_search_trial","641","","f","","","","","","","","","","null","blue_triangle","0","[""images/Red_Triangle.png"",""images/Blue_Triangle.png"",""images/Blue_Triangle.png""]","true","[[17,189],[234,185],[122,0]]","true",""
"visual-search-circle","23","2.2.0","120512","79142","visual_search_trial","628","","j","","","","","","","","","","null","red_circle","0","[""images/Red_Circle.png"",""images/Red_Circle.png"",""images/Red_Circle.png"",""images/Red_Circle.png"",""images/Red_Circle.png"",""images/Red_Circle.png""]","true","[[0,131],[68,236],[193,229],[249,118],[181,13],[56,20]]","false",""
"visual-search-circle","24","2.2.0","122705","79142","visual_search_trial","687","","j","","","","","","","","","","null","red_blue_mix","0","[""images/Blue_Triangle.png"",""images/Red_Circle.png"",""images/Red_Circle.png"",""images/Blue_Triangle.png"",""images/Red_Circle.png"",""images/Blue_Triangle.png""]","true","[[179,237],[249,133],[194,21],[70,12],[0,116],[55,228]]","false",""
"visual-search-circle","25","2.2.0","124867","79142","visual_search_trial","658","","j","","","","","","","","","","null","blue_triangle","0","[""images/Blue_Triangle.png"",""images/Blue_Triangle.png"",""images/Blue_Triangle.png""]","true","[[55,21],[70,237],[249,116]]","false",""
"visual-search-circle","26","2.2.0","127076","79142","visual_search_trial","704","","f","","","","","","","","","","null","red_circle","0","[""images/Red_Triangle.png"",""images/Red_Circle.png"",""images/Red_Circle.png""]","true","[[234,64],[17,60],[122,249]]","true",""
"visual-search-circle","27","2.2.0","129182","79142","visual_search_trial","599","","f","","","","","","","","","","null","blue_triangle","0","[""images/Red_Triangle.png"",""images/Blue_Triangle.png"",""images/Blue_Triangle.png"",""images/Blue_Triangle.png"",""images/Blue_Triangle.png"",""images/Blue_Triangle.png"",""images/Blue_Triangle.png"",""images/Blue_Triangle.png"",""images/Blue_Triangle.png""]","true","[[187,16],[103,1],[29,44],[0,125],[29,205],[103,248],[187,233],[242,167],[242,82]]","true",""
"visual-search-circle","28","2.2.0","131573","79142","visual_search_trial","884","","f","","","","","","","","","","null","red_circle","0","[""images/Red_Triangle.png"",""images/Red_Circle.png"",""images/Red_Circle.png"",""images/Red_Circle.png"",""images/Red_Circle.png"",""images/Red_Circle.png"",""images/Red_Circle.png"",""images/Red_Circle.png"",""images/Red_Circle.png""]","true","[[249,111],[211,35],[133,0],[51,23],[3,94],[12,179],[74,239],[159,245],[228,194]]","true",""
"visual-search-circle","29","2.2.0","133569","79142","visual_search_trial","492","","j","","","","","","","","","","null","red_blue_mix","0","[""images/Blue_Circle.png"",""images/Blue_Circle.png"",""images/Blue_Circle.png""]","true","[[179,237],[194,21],[0,116]]","false",""
"visual-search-circle","30","2.2.0","135728","79142","visual_search_trial","656","","j","","","","","","","","","","null","red_circle","0","[""images/Red_Circle.png"",""images/Red_Circle.png"",""images/Red_Circle.png""]","true","[[201,223],[171,9],[1,142]]","false",""
"visual-search-circle","31","2.2.0","137896","79142","visual_search_trial","662","","j","","","","","","","","","","null","blue_triangle","0","[""images/Blue_Triangle.png"",""images/Blue_Triangle.png"",""images/Blue_Triangle.png"",""images/Blue_Triangle.png"",""images/Blue_Triangle.png"",""images/Blue_Triangle.png""]","true","[[229,56],[118,0],[13,68],[20,193],[131,249],[236,181]]","false",""
"visual-search-circle","32","2.2.0","139974","79142","visual_search_trial","573","","f","","","","","","","","","","null","red_circle","0","[""images/Red_Triangle.png"",""images/Red_Circle.png"",""images/Red_Circle.png"",""images/Red_Circle.png"",""images/Red_Circle.png"",""images/Red_Circle.png""]","true","[[144,248],[241,169],[222,46],[105,1],[8,80],[27,203]]","true",""
"visual-search-circle","33","2.2.0","145129","79142","visual_search_trial","3650","","f","","","","","","","","","","null","red_blue_mix","1","[""images/Red_Triangle.png"",""images/Red_Circle.png"",""images/Blue_Circle.png"",""images/Blue_Circle.png"",""images/Blue_Triangle.png"",""images/Red_Circle.png""]","true","[[248,146],[205,29],[82,7],[1,103],[44,220],[167,242]]","true",""
"visual-search-circle","34","2.2.0","147597","79142","visual_search_trial","965","","j","","","","","","","","","","null","red_circle","1","[""images/Red_Circle.png"",""images/Red_Circle.png"",""images/Red_Circle.png""]","true","[[82,7],[44,220],[248,146]]","false",""
"visual-search-circle","35","2.2.0","149811","79142","visual_search_trial","707","","f","","","","","","","","","","null","red_blue_mix","1","[""images/Red_Triangle.png"",""images/Blue_Circle.png"",""images/Blue_Circle.png"",""images/Blue_Triangle.png"",""images/Blue_Triangle.png"",""images/Red_Circle.png"",""images/Blue_Circle.png"",""images/Blue_Circle.png"",""images/Blue_Circle.png""]","true","[[169,8],[84,6],[17,60],[1,144],[42,219],[122,249],[203,222],[247,148],[234,64]]","true",""
"visual-search-circle","36","2.2.0","151866","79142","visual_search_trial","552","","j","","","","","","","","","","null","blue_triangle","1","[""images/Red_Triangle.png"",""images/Blue_Triangle.png"",""images/Blue_Triangle.png"",""images/Blue_Triangle.png"",""images/Blue_Triangle.png"",""images/Blue_Triangle.png"",""images/Blue_Triangle.png"",""images/Blue_Triangle.png"",""images/Blue_Triangle.png""]","false","[[22,196],[92,245],[177,238],[238,177],[245,92],[196,22],[114,0],[36,36],[0,114]]","true",""
"visual-search-circle","37","2.2.0","154260","79142","visual_search_trial","888","","j","","","","","","","","","","null","red_blue_mix","1","[""images/Blue_Circle.png"",""images/Red_Circle.png"",""images/Red_Circle.png"",""images/Blue_Circle.png"",""images/Blue_Triangle.png"",""images/Blue_Circle.png""]","true","[[62,16],[0,125],[62,233],[187,233],[250,125],[187,16]]","false",""
"visual-search-circle","38","2.2.0","156366","79142","visual_search_trial","600","","j","","","","","","","","","","null","red_circle","1","[""images/Red_Circle.png"",""images/Red_Circle.png"",""images/Red_Circle.png"",""images/Red_Circle.png"",""images/Red_Circle.png"",""images/Red_Circle.png"",""images/Red_Circle.png"",""images/Red_Circle.png"",""images/Red_Circle.png""]","true","[[111,0],[35,38],[0,116],[23,198],[94,246],[179,237],[239,175],[245,90],[194,21]]","false",""
"visual-search-circle","39","2.2.0","158334","79142","visual_search_trial","463","","j","","","","","","","","","","null","blue_triangle","1","[""images/Blue_Triangle.png"",""images/Blue_Triangle.png"",""images/Blue_Triangle.png"",""images/Blue_Triangle.png"",""images/Blue_Triangle.png"",""images/Blue_Triangle.png"",""images/Blue_Triangle.png"",""images/Blue_Triangle.png"",""images/Blue_Triangle.png""]","true","[[103,1],[29,44],[0,125],[29,205],[103,248],[187,233],[242,167],[242,82],[187,16]]","false",""
"visual-search-circle","40","2.2.0","160409","79142","visual_search_trial","569","","f","","","","","","","","","","null","red_circle","1","[""images/Red_Triangle.png"",""images/Red_Circle.png"",""images/Red_Circle.png"",""images/Red_Circle.png"",""images/Red_Circle.png"",""images/Red_Circle.png""]","true","[[53,22],[0,135],[72,238],[196,227],[249,114],[177,11]]","true",""
"visual-search-circle","41","2.2.0","162584","79142","visual_search_trial","670","","j","","","","","","","","","","null","blue_triangle","1","[""images/Blue_Triangle.png"",""images/Blue_Triangle.png"",""images/Blue_Triangle.png"",""images/Blue_Triangle.png"",""images/Blue_Triangle.png"",""images/Blue_Triangle.png""]","true","[[68,13],[0,118],[56,229],[181,236],[249,131],[193,20]]","false",""
"visual-search-circle","42","2.2.0","164704","79142","visual_search_trial","614","","f","","","","","","","","","","null","red_circle","1","[""images/Red_Triangle.png"",""images/Red_Circle.png"",""images/Red_Circle.png"",""images/Red_Circle.png"",""images/Red_Circle.png"",""images/Red_Circle.png"",""images/Red_Circle.png"",""images/Red_Circle.png"",""images/Red_Circle.png""]","true","[[74,239],[159,245],[228,194],[249,111],[211,35],[133,0],[51,23],[3,94],[12,179]]","true",""
"visual-search-circle","43","2.2.0","166874","79142","visual_search_trial","666","","j","","","","","","","","","","null","red_blue_mix","1","[""images/Red_Circle.png"",""images/Blue_Circle.png"",""images/Red_Circle.png""]","true","[[223,201],[142,1],[9,171]]","false",""
"visual-search-circle","44","2.2.0","169000","79142","visual_search_trial","622","","f","","","","","","","","","","null","blue_triangle","1","[""images/Red_Triangle.png"",""images/Blue_Triangle.png"",""images/Blue_Triangle.png"",""images/Blue_Triangle.png"",""images/Blue_Triangle.png"",""images/Blue_Triangle.png""]","true","[[12,179],[116,249],[228,194],[237,70],[133,0],[21,55]]","true",""
"visual-search-circle","45","2.2.0","171340","79142","visual_search_trial","833","","j","","","","","","","","","","null","red_blue_mix","1","[""images/Red_Circle.png"",""images/Red_Circle.png"",""images/Blue_Triangle.png"",""images/Blue_Triangle.png"",""images/Red_Circle.png"",""images/Blue_Circle.png"",""images/Blue_Circle.png"",""images/Blue_Circle.png"",""images/Blue_Circle.png""]","true","[[70,12],[10,74],[4,159],[55,228],[138,249],[214,211],[249,133],[226,51],[155,3]]","false",""
"visual-search-circle","46","2.2.0","173953","79142","visual_search_trial","1107","","j","","","","","","","","","","null","red_circle","1","[""images/Red_Circle.png"",""images/Red_Circle.png"",""images/Red_Circle.png"",""images/Red_Circle.png"",""images/Red_Circle.png"",""images/Red_Circle.png""]","true","[[6,163],[99,247],[217,208],[243,86],[150,2],[32,41]]","false",""
"visual-search-circle","47","2.2.0","176008","79142","visual_search_trial","551","","f","","","","","","","","","","null","red_blue_mix","1","[""images/Red_Triangle.png"",""images/Blue_Circle.png"",""images/Blue_Circle.png""]","true","[[205,220],[167,7],[1,146]]","true",""
"visual-search-circle","48","2.2.0","178086","79142","visual_search_trial","575","","j","","","","","","","","","","null","blue_triangle","1","[""images/Blue_Triangle.png"",""images/Blue_Triangle.png"",""images/Blue_Triangle.png""]","true","[[249,131],[68,13],[56,229]]","false",""
"visual-search-circle","49","2.2.0","180139","79142","visual_search_trial","550","","f","","","","","","","","","","null","red_circle","1","[""images/Red_Triangle.png"",""images/Red_Circle.png"",""images/Red_Circle.png""]","true","[[185,234],[189,17],[0,122]]","true",""
"visual-search-circle","50","2.2.0","182907","79142","visual_search_trial","1264","","f","","","","","","","","","","null","blue_triangle","1","[""images/Red_Triangle.png"",""images/Blue_Triangle.png"",""images/Blue_Triangle.png""]","true","[[228,55],[12,70],[133,249]]","true",""
"html-keyboard-response","51","2.1.0","187659","79142","break","4752","<p>Great job so far! Please rest for a few seconds before continuing.</p>
                 <p>Press the <strong>Y</strong> key on your keyboard to continue.</p>","y","","","","","","","","","","","","","","","","","Y"
"visual-search-circle","52","2.2.0","189834","79142","visual_search_trial","671","","f","","","","","","","","","","null","red_circle","2","[""images/Red_Triangle.png"",""images/Red_Circle.png"",""images/Red_Circle.png""]","true","[[183,14],[0,129],[191,231]]","true",""
"visual-search-circle","53","2.2.0","192004","79142","visual_search_trial","666","","j","","","","","","","","","","null","red_blue_mix","2","[""images/Red_Circle.png"",""images/Blue_Circle.png"",""images/Blue_Circle.png""]","true","[[18,58],[120,249],[235,66]]","false",""
"visual-search-circle","54","2.2.0","194132","79142","visual_search_trial","623","","j","","","","","","","","","","null","blue_triangle","2","[""images/Blue_Triangle.png"",""images/Blue_Triangle.png"",""images/Blue_Triangle.png"",""images/Blue_Triangle.png"",""images/Blue_Triangle.png"",""images/Blue_Triangle.png""]","true","[[167,7],[44,29],[1,146],[82,242],[205,220],[248,103]]","false",""
"visual-search-circle","55","2.2.0","196239","79142","visual_search_trial","604","","j","","","","","","","","","","null","red_circle","2","[""images/Red_Circle.png"",""images/Red_Circle.png"",""images/Red_Circle.png""]","true","[[228,55],[12,70],[133,249]]","false",""
"visual-search-circle","56","2.2.0","198481","79142","visual_search_trial","739","","f","","","","","","","","","","null","red_blue_mix","2","[""images/Red_Triangle.png"",""images/Blue_Triangle.png"",""images/Red_Circle.png""]","true","[[159,4],[3,155],[211,214]]","true",""
"visual-search-circle","57","2.2.0","200557","79142","visual_search_trial","569","","j","","","","","","","","","","null","blue_triangle","2","[""images/Blue_Triangle.png"",""images/Blue_Triangle.png"",""images/Blue_Triangle.png"",""images/Blue_Triangle.png"",""images/Blue_Triangle.png"",""images/Blue_Triangle.png"",""images/Blue_Triangle.png"",""images/Blue_Triangle.png"",""images/Blue_Triangle.png""]","true","[[64,234],[148,247],[222,203],[249,122],[219,42],[144,1],[60,17],[6,84],[8,169]]","false",""
"visual-search-circle","58","2.2.0","202976","79142","visual_search_trial","914","","j","","","","","","","","","","null","red_blue_mix","2","[""images/Red_Circle.png"",""images/Blue_Triangle.png"",""images/Red_Circle.png"",""images/Blue_Circle.png"",""images/Blue_Triangle.png"",""images/Red_Circle.png""]","true","[[3,153],[88,244],[210,216],[246,96],[161,5],[39,33]]","false",""
"visual-search-circle","59","2.2.0","205117","79142","visual_search_trial","637","","f","","","","","","","","","","null","blue_triangle","2","[""images/Red_Triangle.png"",""images/Blue_Triangle.png"",""images/Blue_Triangle.png"",""images/Blue_Triangle.png"",""images/Blue_Triangle.png"",""images/Blue_Triangle.png"",""images/Blue_Triangle.png"",""images/Blue_Triangle.png"",""images/Blue_Triangle.png""]","true","[[200,25],[118,0],[39,33],[0,109],[20,193],[88,244],[173,240],[236,181],[246,96]]","true",""
"visual-search-circle","60","2.2.0","207186","79142","visual_search_trial","563","","j","","","","","","","","","","null","red_circle","2","[""images/Red_Circle.png"",""images/Red_Circle.png"",""images/Red_Circle.png"",""images/Red_Circle.png"",""images/Red_Circle.png"",""images/Red_Circle.png"",""images/Red_Circle.png"",""images/Red_Circle.png"",""images/Red_Circle.png""]","true","[[142,248],[217,208],[249,129],[223,48],[150,2],[66,14],[9,78],[6,163],[58,231]]","false",""
"visual-search-circle","61","2.2.0","209373","79142","visual_search_trial","680","","f","","","","","","","","","","null","red_blue_mix","2","[""images/Red_Triangle.png"",""images/Blue_Circle.png"",""images/Blue_Triangle.png"",""images/Red_Circle.png"",""images/Red_Circle.png"",""images/Blue_Triangle.png"",""images/Blue_Triangle.png"",""images/Blue_Triangle.png"",""images/Blue_Triangle.png""]","true","[[245,90],[194,21],[111,0],[35,38],[0,116],[23,198],[94,246],[179,237],[239,175]]","true",""
"visual-search-circle","62","2.2.0","211408","79142","visual_search_trial","531","","f","","","","","","","","","","null","blue_triangle","2","[""images/Red_Triangle.png"",""images/Blue_Triangle.png"",""images/Blue_Triangle.png""]","true","[[222,46],[8,80],[144,248]]","true",""
"visual-search-circle","63","2.2.0","213414","79142","visual_search_trial","501","","j","","","","","","","","","","null","red_circle","2","[""images/Red_Circle.png"",""images/Red_Circle.png"",""images/Red_Circle.png"",""images/Red_Circle.png"",""images/Red_Circle.png"",""images/Red_Circle.png""]","true","[[200,25],[76,9],[0,109],[49,224],[173,240],[249,140]]","false",""
"visual-search-circle","64","2.2.0","215609","79142","visual_search_trial","690","","f","","","","","","","","","","null","blue_triangle","2","[""images/Red_Triangle.png"",""images/Blue_Triangle.png"",""images/Blue_Triangle.png"",""images/Blue_Triangle.png"",""images/Blue_Triangle.png"",""images/Blue_Triangle.png""]","true","[[1,144],[80,241],[203,222],[248,105],[169,8],[46,27]]","true",""
"visual-search-circle","65","2.2.0","217773","79142","visual_search_trial","659","","f","","","","","","","","","","null","red_blue_mix","2","[""images/Red_Triangle.png"",""images/Blue_Triangle.png"",""images/Blue_Circle.png"",""images/Blue_Triangle.png"",""images/Blue_Triangle.png"",""images/Blue_Circle.png""]","true","[[86,243],[208,217],[247,99],[163,6],[41,32],[2,150]]","true",""
"visual-search-circle","66","2.2.0","219845","79142","visual_search_trial","568","","j","","","","","","","","","","null","blue_triangle","2","[""images/Blue_Triangle.png"",""images/Blue_Triangle.png"",""images/Blue_Triangle.png""]","true","[[175,239],[198,23],[0,111]]","false",""
"visual-search-circle","67","2.2.0","221962","79142","visual_search_trial","612","","f","","","","","","","","","","null","red_circle","2","[""images/Red_Triangle.png"",""images/Red_Circle.png"",""images/Red_Circle.png"",""images/Red_Circle.png"",""images/Red_Circle.png"",""images/Red_Circle.png""]","true","[[29,44],[7,167],[103,248],[220,205],[242,82],[146,1]]","true",""
"visual-search-circle","68","2.2.0","224048","79142","visual_search_trial","581","","j","","","","","","","","","","null","red_blue_mix","2","[""images/Blue_Circle.png"",""images/Blue_Circle.png"",""images/Blue_Triangle.png"",""images/Blue_Triangle.png"",""images/Blue_Triangle.png"",""images/Blue_Triangle.png"",""images/Red_Circle.png"",""images/Blue_Circle.png"",""images/Blue_Circle.png""]","true","[[236,68],[173,9],[88,5],[20,56],[0,140],[39,216],[118,249],[200,224],[246,153]]","false",""
"visual-search-circle","69","2.2.0","226198","79142","visual_search_trial","643","","f","","","","","","","","","","null","red_circle","2","[""images/Red_Triangle.png"",""images/Red_Circle.png"",""images/Red_Circle.png"",""images/Red_Circle.png"",""images/Red_Circle.png"",""images/Red_Circle.png"",""images/Red_Circle.png"",""images/Red_Circle.png"",""images/Red_Circle.png""]","true","[[53,227],[135,249],[213,213],[249,135],[227,53],[157,4],[72,11],[11,72],[4,157]]","true",""
"visual-search-circle","70","2.2.0","228500","79142","visual_search_trial","800","","j","","","","","","","","","","null","red_blue_mix","3","[""images/Blue_Circle.png"",""images/Red_Circle.png"",""images/Blue_Triangle.png"",""images/Red_Circle.png"",""images/Blue_Triangle.png"",""images/Red_Circle.png""]","true","[[167,7],[44,29],[1,146],[82,242],[205,220],[248,103]]","false",""
"visual-search-circle","71","2.2.0","232363","79142","visual_search_trial","2359","","f","","","","","","","","","","null","red_circle","3","[""images/Red_Circle.png"",""images/Red_Circle.png"",""images/Red_Circle.png"",""images/Red_Circle.png"",""images/Red_Circle.png"",""images/Red_Circle.png""]","false","[[0,111],[51,226],[175,239],[249,138],[198,23],[74,10]]","false",""
"visual-search-circle","72","2.2.0","234919","79142","visual_search_trial","1052","","j","","","","","","","","","","null","blue_triangle","3","[""images/Blue_Triangle.png"",""images/Blue_Triangle.png"",""images/Blue_Triangle.png""]","true","[[68,13],[56,229],[249,131]]","false",""
"visual-search-circle","73","2.2.0","237022","79142","visual_search_trial","598","","f","","","","","","","","","","null","red_blue_mix","3","[""images/Red_Triangle.png"",""images/Red_Circle.png"",""images/Blue_Circle.png"",""images/Blue_Triangle.png"",""images/Blue_Circle.png"",""images/Blue_Circle.png""]","true","[[179,12],[55,21],[0,133],[70,237],[194,228],[249,116]]","true",""
"visual-search-circle","74","2.2.0","239059","79142","visual_search_trial","534","","f","","","","","","","","","","null","red_circle","3","[""images/Red_Triangle.png"",""images/Red_Circle.png"",""images/Red_Circle.png""]","true","[[226,198],[138,0],[10,175]]","true",""
"visual-search-circle","75","2.2.0","241352","79142","visual_search_trial","790","","j","","","","","","","","","","null","red_blue_mix","3","[""images/Red_Circle.png"",""images/Blue_Triangle.png"",""images/Blue_Triangle.png""]","true","[[12,70],[133,249],[228,55]]","false",""
"visual-search-circle","76","2.2.0","243312","79142","visual_search_trial","455","","j","","","","","","","","","","null","red_circle","3","[""images/Red_Triangle.png"",""images/Red_Circle.png"",""images/Red_Circle.png"",""images/Red_Circle.png"",""images/Red_Circle.png"",""images/Red_Circle.png""]","false","[[70,237],[194,228],[249,116],[179,12],[55,21],[0,133]]","true",""
"visual-search-circle","77","2.2.0","245628","79142","visual_search_trial","809","","j","","","","","","","","","","null","blue_triangle","3","[""images/Blue_Triangle.png"",""images/Blue_Triangle.png"",""images/Blue_Triangle.png"",""images/Blue_Triangle.png"",""images/Blue_Triangle.png"",""images/Blue_Triangle.png"",""images/Blue_Triangle.png"",""images/Blue_Triangle.png"",""images/Blue_Triangle.png""]","true","[[245,157],[238,72],[177,11],[92,4],[22,53],[0,135],[36,213],[114,249],[196,227]]","false",""
"visual-search-circle","78","2.2.0","247940","79142","visual_search_trial","807","","j","","","","","","","","","","null","red_blue_mix","3","[""images/Red_Circle.png"",""images/Blue_Triangle.png"",""images/Blue_Triangle.png"",""images/Blue_Triangle.png"",""images/Red_Circle.png"",""images/Blue_Circle.png"",""images/Red_Circle.png"",""images/Blue_Triangle.png"",""images/Blue_Circle.png""]","true","[[249,118],[216,39],[140,0],[56,20],[5,88],[9,173],[68,236],[153,246],[224,200]]","false",""
"visual-search-circle","79","2.2.0","250071","79142","visual_search_trial","625","","f","","","","","","","","","","null","red_circle","3","[""images/Red_Triangle.png"",""images/Red_Circle.png"",""images/Red_Circle.png"",""images/Red_Circle.png"",""images/Red_Circle.png"",""images/Red_Circle.png"",""images/Red_Circle.png"",""images/Red_Circle.png"",""images/Red_Circle.png""]","true","[[171,240],[235,183],[247,99],[201,26],[120,0],[41,32],[1,107],[18,191],[86,243]]","true",""
"visual-search-circle","80","2.2.0","252052","79142","visual_search_trial","477","","f","","","","","","","","","","null","blue_triangle","3","[""images/Red_Triangle.png"",""images/Blue_Triangle.png"",""images/Blue_Triangle.png""]","true","[[135,249],[227,53],[11,72]]","true",""
"visual-search-circle","81","2.2.0","254191","79142","visual_search_trial","632","","f","","","","","","","","","","null","red_blue_mix","3","[""images/Red_Triangle.png"",""images/Blue_Circle.png"",""images/Blue_Triangle.png"",""images/Red_Circle.png"",""images/Red_Circle.png"",""images/Blue_Triangle.png"",""images/Blue_Triangle.png"",""images/Red_Circle.png"",""images/Red_Circle.png""]","true","[[227,196],[249,114],[213,36],[135,0],[53,22],[4,92],[11,177],[72,238],[157,245]]","true",""
"visual-search-circle","82","2.2.0","256225","79142","visual_search_trial","530","","j","","","","","","","","","","null","red_circle","3","[""images/Red_Circle.png"",""images/Red_Circle.png"",""images/Red_Circle.png""]","true","[[33,39],[96,246],[244,88]]","false",""
"visual-search-circle","83","2.2.0","258910","79142","visual_search_trial","1179","","f","","","","","","","","","","null","blue_triangle","3","[""images/Red_Triangle.png"",""images/Blue_Triangle.png"",""images/Blue_Triangle.png"",""images/Blue_Triangle.png"",""images/Blue_Triangle.png"",""images/Blue_Triangle.png"",""images/Blue_Triangle.png"",""images/Blue_Triangle.png"",""images/Blue_Triangle.png""]","true","[[49,224],[131,249],[210,216],[249,140],[229,56],[161,5],[76,9],[13,68],[3,153]]","true",""
"visual-search-circle","84","2.2.0","261487","79142","visual_search_trial","1072","","f","","","","","","","","","","null","red_blue_mix","3","[""images/Red_Triangle.png"",""images/Red_Circle.png"",""images/Blue_Circle.png""]","true","[[205,29],[1,103],[167,242]]","true",""
"visual-search-circle","85","2.2.0","266332","79142","visual_search_trial","3339","","f","","","","","","","","","","null","blue_triangle","3","[""images/Red_Triangle.png"",""images/Blue_Triangle.png"",""images/Blue_Triangle.png"",""images/Blue_Triangle.png"",""images/Blue_Triangle.png"",""images/Blue_Triangle.png""]","true","[[191,231],[249,120],[183,14],[58,18],[0,129],[66,235]]","true",""
"visual-search-circle","86","2.2.0","274759","79142","visual_search_trial","6921","","j","","","","","","","","","","null","red_circle","3","[""images/Red_Circle.png"",""images/Red_Circle.png"",""images/Red_Circle.png"",""images/Red_Circle.png"",""images/Red_Circle.png"",""images/Red_Circle.png"",""images/Red_Circle.png"",""images/Red_Circle.png"",""images/Red_Circle.png""]","true","[[179,12],[94,3],[23,51],[0,133],[35,211],[111,249],[194,228],[245,159],[239,74]]","false",""
"visual-search-circle","87","2.2.0","276787","79142","visual_search_trial","523","","f","","","","","","","","","","null","blue_triangle","3","[""images/Blue_Triangle.png"",""images/Blue_Triangle.png"",""images/Blue_Triangle.png"",""images/Blue_Triangle.png"",""images/Blue_Triangle.png"",""images/Blue_Triangle.png""]","false","[[96,3],[5,88],[33,210],[153,246],[244,161],[216,39]]","false",""
"html-keyboard-response","88","2.1.0","279335","79142","break","2548","<p>Great job so far! Please rest for a few seconds before continuing.</p>
                 <p>Press the <strong>U</strong> key on your keyboard to continue.</p>","u","","","","","","","","","","","","","","","","","U"
"visual-search-circle","89","2.2.0","281587","79142","visual_search_trial","747","","f","","","","","","","","","","null","blue_triangle","4","[""images/Red_Triangle.png"",""images/Blue_Triangle.png"",""images/Blue_Triangle.png"",""images/Blue_Triangle.png"",""images/Blue_Triangle.png"",""images/Blue_Triangle.png"",""images/Blue_Triangle.png"",""images/Blue_Triangle.png"",""images/Blue_Triangle.png""]","true","[[25,200],[96,246],[181,236],[240,173],[244,88],[193,20],[109,0],[33,39],[0,118]]","true",""
"visual-search-circle","90","2.2.0","284566","79142","visual_search_trial","1475","","j","","","","","","","","","","null","red_circle","4","[""images/Red_Circle.png"",""images/Red_Circle.png"",""images/Red_Circle.png""]","true","[[153,246],[216,39],[5,88]]","false",""
"visual-search-circle","91","2.2.0","286513","79142","visual_search_trial","443","","j","","","","","","","","","","null","blue_triangle","4","[""images/Red_Triangle.png"",""images/Blue_Triangle.png"",""images/Blue_Triangle.png""]","false","[[185,234],[189,17],[0,122]]","true",""
"visual-search-circle","92","2.2.0","288534","79142","visual_search_trial","517","","f","","","","","","","","","","null","red_circle","4","[""images/Red_Triangle.png"",""images/Red_Circle.png"",""images/Red_Circle.png""]","true","[[78,9],[48,223],[248,142]]","true",""
"visual-search-circle","93","2.2.0","290981","79142","visual_search_trial","945","","j","","","","","","","","","","null","red_blue_mix","4","[""images/Blue_Circle.png"",""images/Blue_Circle.png"",""images/Blue_Triangle.png""]","true","[[163,243],[208,32],[2,99]]","false",""
"visual-search-circle","94","2.2.0","293124","79142","visual_search_trial","639","","j","","","","","","","","","","null","blue_triangle","4","[""images/Blue_Triangle.png"",""images/Blue_Triangle.png"",""images/Blue_Triangle.png"",""images/Blue_Triangle.png"",""images/Blue_Triangle.png"",""images/Blue_Triangle.png""]","true","[[214,38],[94,3],[4,90],[35,211],[155,246],[245,159]]","false",""
"visual-search-circle","95","2.2.0","295729","79142","visual_search_trial","1099","","j","","","","","","","","","","null","red_blue_mix","4","[""images/Blue_Triangle.png"",""images/Blue_Circle.png"",""images/Red_Circle.png"",""images/Red_Circle.png"",""images/Red_Circle.png"",""images/Blue_Circle.png"",""images/Red_Circle.png"",""images/Blue_Circle.png"",""images/Blue_Triangle.png""]","true","[[179,237],[239,175],[245,90],[194,21],[111,0],[35,38],[0,116],[23,198],[94,246]]","false",""
"visual-search-circle","96","2.2.0","297991","79142","visual_search_trial","754","","f","","","","","","","","","","null","red_circle","4","[""images/Red_Triangle.png"",""images/Red_Circle.png"",""images/Red_Circle.png"",""images/Red_Circle.png"",""images/Red_Circle.png"",""images/Red_Circle.png"",""images/Red_Circle.png"",""images/Red_Circle.png"",""images/Red_Circle.png""]","true","[[169,241],[234,185],[247,101],[203,27],[122,0],[42,30],[1,105],[17,189],[84,243]]","true",""
"visual-search-circle","97","2.2.0","300069","79142","visual_search_trial","573","","f","","","","","","","","","","null","blue_triangle","4","[""images/Red_Triangle.png"",""images/Blue_Triangle.png"",""images/Blue_Triangle.png"",""images/Blue_Triangle.png"",""images/Blue_Triangle.png"",""images/Blue_Triangle.png""]","true","[[0,140],[76,240],[200,224],[249,109],[173,9],[49,25]]","true",""
"visual-search-circle","98","2.2.0","302367","79142","visual_search_trial","793","","f","","","","","","","","","","null","red_circle","4","[""images/Red_Triangle.png"",""images/Red_Circle.png"",""images/Red_Circle.png"",""images/Red_Circle.png"",""images/Red_Circle.png"",""images/Red_Circle.png""]","true","[[243,165],[219,42],[101,2],[6,84],[30,207],[148,247]]","true",""
"visual-search-circle","99","2.2.0","304731","79142","visual_search_trial","859","","j","","","","","","","","","","null","red_blue_mix","4","[""images/Blue_Triangle.png"",""images/Red_Circle.png"",""images/Blue_Triangle.png"",""images/Blue_Circle.png"",""images/Blue_Triangle.png"",""images/Red_Circle.png""]","true","[[173,9],[49,25],[0,140],[76,240],[200,224],[249,109]]","false",""
"visual-search-circle","100","2.2.0","309851","79142","visual_search_trial","3613","","j","","","","","","","","","","null","blue_triangle","4","[""images/Blue_Triangle.png"",""images/Blue_Triangle.png"",""images/Blue_Triangle.png"",""images/Blue_Triangle.png"",""images/Blue_Triangle.png"",""images/Blue_Triangle.png"",""images/Blue_Triangle.png"",""images/Blue_Triangle.png"",""images/Blue_Triangle.png""]","true","[[1,107],[18,191],[86,243],[171,240],[235,183],[247,99],[201,26],[120,0],[41,32]]","false",""
"visual-search-circle","101","2.2.0","311967","79142","visual_search_trial","612","","f","","","","","","","","","","null","red_blue_mix","4","[""images/Red_Triangle.png"",""images/Blue_Circle.png"",""images/Blue_Circle.png""]","true","[[205,29],[1,103],[167,242]]","true",""
"visual-search-circle","102","2.2.0","314129","79142","visual_search_trial","658","","j","","","","","","","","","","null","red_circle","4","[""images/Red_Circle.png"",""images/Red_Circle.png"",""images/Red_Circle.png"",""images/Red_Circle.png"",""images/Red_Circle.png"",""images/Red_Circle.png""]","true","[[101,247],[219,207],[243,84],[148,2],[30,42],[6,165]]","false",""
"visual-search-circle","103","2.2.0","316132","79142","visual_search_trial","497","","f","","","","","","","","","","null","red_blue_mix","4","[""images/Red_Triangle.png"",""images/Blue_Circle.png"",""images/Blue_Circle.png"",""images/Blue_Triangle.png"",""images/Blue_Circle.png"",""images/Blue_Circle.png""]","true","[[88,244],[210,216],[246,96],[161,5],[39,33],[3,153]]","true",""
"visual-search-circle","104","2.2.0","318071","79142","visual_search_trial","436","","j","","","","","","","","","","null","blue_triangle","4","[""images/Blue_Triangle.png"",""images/Blue_Triangle.png"",""images/Blue_Triangle.png""]","true","[[1,146],[205,220],[167,7]]","false",""
"visual-search-circle","105","2.2.0","320062","79142","visual_search_trial","484","","f","","","","","","","","","","null","red_blue_mix","4","[""images/Red_Triangle.png"",""images/Blue_Triangle.png"",""images/Blue_Circle.png"",""images/Blue_Triangle.png"",""images/Blue_Triangle.png"",""images/Blue_Circle.png"",""images/Blue_Circle.png"",""images/Red_Circle.png"",""images/Red_Circle.png""]","true","[[49,224],[131,249],[210,216],[249,140],[229,56],[161,5],[76,9],[13,68],[3,153]]","true",""
"visual-search-circle","106","2.2.0","322352","79142","visual_search_trial","784","","j","","","","","","","","","","null","red_circle","4","[""images/Red_Circle.png"",""images/Red_Circle.png"",""images/Red_Circle.png"",""images/Red_Circle.png"",""images/Red_Circle.png"",""images/Red_Circle.png"",""images/Red_Circle.png"",""images/Red_Circle.png"",""images/Red_Circle.png""]","true","[[0,114],[22,196],[92,245],[177,238],[238,177],[245,92],[196,22],[114,0],[36,36]]","false",""
"visual-search-circle","107","2.2.0","324520","79142","visual_search_trial","664","","j","","","","","","","","","","null","red_blue_mix","5","[""images/Red_Circle.png"",""images/Red_Circle.png"",""images/Red_Circle.png"",""images/Blue_Circle.png"",""images/Red_Circle.png"",""images/Red_Circle.png""]","true","[[103,1],[7,82],[29,205],[146,248],[242,167],[220,44]]","false",""
"visual-search-circle","108","2.2.0","326565","79142","visual_search_trial","539","","f","","","","","","","","","","null","red_circle","5","[""images/Red_Triangle.png"",""images/Red_Circle.png"",""images/Red_Circle.png"",""images/Red_Circle.png"",""images/Red_Circle.png"",""images/Red_Circle.png"",""images/Red_Circle.png"",""images/Red_Circle.png"",""images/Red_Circle.png""]","true","[[231,58],[163,6],[78,9],[14,66],[2,150],[48,223],[129,249],[208,217],[248,142]]","true",""
"visual-search-circle","109","2.2.0","328633","79142","visual_search_trial","564","","f","","","","","","","","","","null","blue_triangle","5","[""images/Red_Triangle.png"",""images/Blue_Triangle.png"",""images/Blue_Triangle.png""]","true","[[232,189],[127,0],[15,185]]","true",""
"visual-search-circle","110","2.2.0","330605","79142","visual_search_trial","468","","f","","","","","","","","","","null","red_circle","5","[""images/Red_Triangle.png"",""images/Red_Circle.png"",""images/Red_Circle.png""]","true","[[219,42],[6,84],[148,247]]","true",""
"visual-search-circle","111","2.2.0","332628","79142","visual_search_trial","518","","f","","","","","","","","","","null","red_blue_mix","5","[""images/Blue_Triangle.png"",""images/Red_Circle.png"",""images/Red_Circle.png""]","false","[[196,227],[177,11],[0,135]]","false",""
"visual-search-circle","112","2.2.0","334595","79142","visual_search_trial","461","","f","","","","","","","","","","null","blue_triangle","5","[""images/Red_Triangle.png"",""images/Blue_Triangle.png"",""images/Blue_Triangle.png"",""images/Blue_Triangle.png"",""images/Blue_Triangle.png"",""images/Blue_Triangle.png"",""images/Blue_Triangle.png"",""images/Blue_Triangle.png"",""images/Blue_Triangle.png""]","true","[[129,0],[48,26],[2,99],[14,183],[78,240],[163,243],[231,191],[248,107],[208,32]]","true",""
"visual-search-circle","113","2.2.0","336635","79142","visual_search_trial","534","","f","","","","","","","","","","null","red_blue_mix","5","[""images/Red_Triangle.png"",""images/Red_Circle.png"",""images/Blue_Circle.png"",""images/Blue_Triangle.png"",""images/Red_Circle.png"",""images/Red_Circle.png""]","true","[[33,39],[5,161],[96,246],[216,210],[244,88],[153,3]]","true",""
"visual-search-circle","114","2.2.0","338854","79142","visual_search_trial","715","","j","","","","","","","","","","null","blue_triangle","5","[""images/Blue_Triangle.png"",""images/Blue_Triangle.png"",""images/Blue_Triangle.png""]","true","[[76,9],[49,224],[249,140]]","false",""
"visual-search-circle","115","2.2.0","341037","79142","visual_search_trial","677","","f","","","","","","","","","","null","red_blue_mix","5","[""images/Red_Triangle.png"",""images/Blue_Triangle.png"",""images/Red_Circle.png"",""images/Red_Circle.png"",""images/Blue_Circle.png"",""images/Blue_Circle.png"",""images/Blue_Triangle.png"",""images/Red_Circle.png"",""images/Blue_Triangle.png""]","true","[[90,245],[175,239],[237,179],[246,94],[198,23],[116,0],[38,35],[0,111],[21,194]]","true",""
"visual-search-circle","116","2.2.0","343072","79142","visual_search_trial","529","","j","","","","","","","","","","null","red_circle","5","[""images/Red_Circle.png"",""images/Red_Circle.png"",""images/Red_Circle.png"",""images/Red_Circle.png"",""images/Red_Circle.png"",""images/Red_Circle.png""]","true","[[32,41],[6,163],[99,247],[217,208],[243,86],[150,2]]","false",""
"visual-search-circle","117","2.2.0","345125","79142","visual_search_trial","546","","j","","","","","","","","","","null","blue_triangle","5","[""images/Blue_Triangle.png"",""images/Blue_Triangle.png"",""images/Blue_Triangle.png"",""images/Blue_Triangle.png"",""images/Blue_Triangle.png"",""images/Blue_Triangle.png"",""images/Blue_Triangle.png"",""images/Blue_Triangle.png"",""images/Blue_Triangle.png""]","true","[[249,138],[228,55],[159,4],[74,10],[12,70],[3,155],[51,226],[133,249],[211,214]]","false",""
"visual-search-circle","118","2.2.0","347204","79142","visual_search_trial","572","","j","","","","","","","","","","null","red_circle","5","[""images/Red_Circle.png"",""images/Red_Circle.png"",""images/Red_Circle.png"",""images/Red_Circle.png"",""images/Red_Circle.png"",""images/Red_Circle.png"",""images/Red_Circle.png"",""images/Red_Circle.png"",""images/Red_Circle.png""]","true","[[246,155],[237,70],[175,10],[90,4],[21,55],[0,138],[38,214],[116,249],[198,226]]","false",""
"visual-search-circle","119","2.2.0","349272","79142","visual_search_trial","564","","f","","","","","","","","","","null","red_blue_mix","5","[""images/Red_Triangle.png"",""images/Blue_Triangle.png"",""images/Blue_Triangle.png""]","true","[[88,5],[39,216],[246,153]]","true",""
"visual-search-circle","120","2.2.0","351081","79142","visual_search_trial","305","","j","","","","","","","","","","null","red_circle","5","[""images/Red_Circle.png"",""images/Red_Circle.png"",""images/Red_Circle.png""]","true","[[231,58],[14,66],[129,249]]","false",""
"visual-search-circle","121","2.2.0","353228","79142","visual_search_trial","644","","j","","","","","","","","","","null","blue_triangle","5","[""images/Red_Triangle.png"",""images/Blue_Triangle.png"",""images/Blue_Triangle.png"",""images/Blue_Triangle.png"",""images/Blue_Triangle.png"",""images/Blue_Triangle.png""]","false","[[6,86],[32,208],[150,247],[243,163],[217,41],[99,2]]","true",""
"visual-search-circle","122","2.2.0","355099","79142","visual_search_trial","365","","j","","","","","","","","","","null","red_blue_mix","5","[""images/Blue_Circle.png"",""images/Blue_Circle.png"",""images/Red_Circle.png"",""images/Blue_Circle.png"",""images/Red_Circle.png"",""images/Red_Circle.png"",""images/Blue_Triangle.png"",""images/Red_Circle.png"",""images/Blue_Triangle.png""]","true","[[8,80],[6,165],[60,232],[144,248],[219,207],[249,127],[222,46],[148,2],[64,15]]","false",""
"visual-search-circle","123","2.2.0","357337","79142","visual_search_trial","733","","j","","","","","","","","","","null","blue_triangle","5","[""images/Blue_Triangle.png"",""images/Blue_Triangle.png"",""images/Blue_Triangle.png"",""images/Blue_Triangle.png"",""images/Blue_Triangle.png"",""images/Blue_Triangle.png""]","true","[[53,22],[0,135],[72,238],[196,227],[249,114],[177,11]]","false",""
"visual-search-circle","124","2.2.0","359289","79142","visual_search_trial","446","","f","","","","","","","","","","null","red_circle","5","[""images/Red_Triangle.png"",""images/Red_Circle.png"",""images/Red_Circle.png"",""images/Red_Circle.png"",""images/Red_Circle.png"",""images/Red_Circle.png""]","true","[[239,74],[138,0],[23,51],[10,175],[111,249],[226,198]]","true",""
"html-keyboard-response","125","2.1.0","361144","79142","break","1855","<p>Great job so far! Please rest for a few seconds before continuing.</p>
                 <p>Press the <strong>H</strong> key on your keyboard to continue.</p>","h","","","","","","","","","","","","","","","","","H"
"visual-search-circle","126","2.2.0","363265","79142","visual_search_trial","617","","f","","","","","","","","","","null","red_blue_mix","6","[""images/Red_Triangle.png"",""images/Blue_Triangle.png"",""images/Blue_Triangle.png"",""images/Blue_Circle.png"",""images/Blue_Triangle.png"",""images/Red_Circle.png""]","true","[[167,7],[44,29],[1,146],[82,242],[205,220],[248,103]]","true",""
"visual-search-circle","127","2.2.0","365311","79142","visual_search_trial","543","","j","","","","","","","","","","null","blue_triangle","6","[""images/Blue_Triangle.png"",""images/Blue_Triangle.png"",""images/Blue_Triangle.png""]","true","[[208,32],[2,99],[163,243]]","false",""
"visual-search-circle","128","2.2.0","367474","79142","visual_search_trial","657","","j","","","","","","","","","","null","red_blue_mix","6","[""images/Red_Circle.png"",""images/Blue_Triangle.png"",""images/Red_Circle.png"",""images/Red_Circle.png"",""images/Blue_Triangle.png"",""images/Blue_Triangle.png""]","true","[[142,1],[26,48],[9,171],[107,248],[223,201],[240,78]]","false",""
"visual-search-circle","129","2.2.0","369467","79142","visual_search_trial","488","","f","","","","","","","","","","null","blue_triangle","6","[""images/Red_Triangle.png"",""images/Blue_Triangle.png"",""images/Blue_Triangle.png""]","true","[[4,159],[214,211],[155,3]]","true",""
"visual-search-circle","130","2.2.0","371240","79142","visual_search_trial","268","","j","","","","","","","","","","null","red_circle","6","[""images/Red_Triangle.png"",""images/Red_Circle.png"",""images/Red_Circle.png"",""images/Red_Circle.png"",""images/Red_Circle.png"",""images/Red_Circle.png""]","false","[[55,228],[179,237],[249,133],[194,21],[70,12],[0,116]]","true",""
"visual-search-circle","131","2.2.0","373342","79142","visual_search_trial","598","","f","","","","","","","","","","null","red_blue_mix","6","[""images/Red_Triangle.png"",""images/Blue_Circle.png"",""images/Blue_Triangle.png""]","true","[[107,1],[26,201],[240,171]]","true",""
"visual-search-circle","132","2.2.0","375372","79142","visual_search_trial","526","","f","","","","","","","","","","null","blue_triangle","6","[""images/Red_Triangle.png"",""images/Blue_Triangle.png"",""images/Blue_Triangle.png"",""images/Blue_Triangle.png"",""images/Blue_Triangle.png"",""images/Blue_Triangle.png""]","true","[[111,0],[10,74],[23,198],[138,249],[239,175],[226,51]]","true",""
"visual-search-circle","133","2.2.0","377389","79142","visual_search_trial","510","","j","","","","","","","","","","null","red_circle","6","[""images/Red_Circle.png"",""images/Red_Circle.png"",""images/Red_Circle.png"",""images/Red_Circle.png"",""images/Red_Circle.png"",""images/Red_Circle.png"",""images/Red_Circle.png"",""images/Red_Circle.png"",""images/Red_Circle.png""]","true","[[219,42],[144,1],[60,17],[6,84],[8,169],[64,234],[148,247],[222,203],[249,122]]","false",""
"visual-search-circle","134","2.2.0","379397","79142","visual_search_trial","503","","j","","","","","","","","","","null","red_blue_mix","6","[""images/Blue_Circle.png"",""images/Red_Circle.png"",""images/Red_Circle.png""]","true","[[235,66],[18,58],[120,249]]","false",""
"visual-search-circle","135","2.2.0","381609","79142","visual_search_trial","708","","j","","","","","","","","","","null","red_circle","6","[""images/Red_Circle.png"",""images/Red_Circle.png"",""images/Red_Circle.png""]","true","[[12,179],[228,194],[133,0]]","false",""
"visual-search-circle","136","2.2.0","383663","79142","visual_search_trial","547","","j","","","","","","","","","","null","blue_triangle","6","[""images/Blue_Triangle.png"",""images/Blue_Triangle.png"",""images/Blue_Triangle.png"",""images/Blue_Triangle.png"",""images/Blue_Triangle.png"",""images/Blue_Triangle.png"",""images/Blue_Triangle.png"",""images/Blue_Triangle.png"",""images/Blue_Triangle.png""]","true","[[13,181],[76,240],[161,244],[229,193],[249,109],[210,33],[131,0],[49,25],[3,96]]","false",""
"visual-search-circle","137","2.2.0","385596","79142","visual_search_trial","428","","j","","","","","","","","","","null","red_circle","6","[""images/Red_Circle.png"",""images/Red_Circle.png"",""images/Red_Circle.png"",""images/Red_Circle.png"",""images/Red_Circle.png"",""images/Red_Circle.png""]","true","[[248,144],[203,27],[80,8],[1,105],[46,222],[169,241]]","false",""
"visual-search-circle","138","2.2.0","387553","79142","visual_search_trial","450","","j","","","","","","","","","","null","red_blue_mix","6","[""images/Red_Triangle.png"",""images/Blue_Circle.png"",""images/Blue_Circle.png"",""images/Blue_Triangle.png"",""images/Blue_Triangle.png"",""images/Red_Circle.png"",""images/Blue_Circle.png"",""images/Red_Circle.png"",""images/Blue_Circle.png""]","false","[[20,193],[88,244],[173,240],[236,181],[246,96],[200,25],[118,0],[39,33],[0,109]]","true",""
"visual-search-circle","139","2.2.0","389511","79142","visual_search_trial","450","","f","","","","","","","","","","null","blue_triangle","6","[""images/Red_Triangle.png"",""images/Blue_Triangle.png"",""images/Blue_Triangle.png"",""images/Blue_Triangle.png"",""images/Blue_Triangle.png"",""images/Blue_Triangle.png"",""images/Blue_Triangle.png"",""images/Blue_Triangle.png"",""images/Blue_Triangle.png""]","true","[[193,20],[109,0],[33,39],[0,118],[25,200],[96,246],[181,236],[240,173],[244,88]]","true",""
"visual-search-circle","140","2.2.0","391490","79142","visual_search_trial","475","","j","","","","","","","","","","null","red_circle","6","[""images/Red_Triangle.png"",""images/Red_Circle.png"",""images/Red_Circle.png""]","false","[[207,219],[165,6],[2,148]]","true",""
"visual-search-circle","141","2.2.0","393777","79142","visual_search_trial","782","","j","","","","","","","","","","null","blue_triangle","6","[""images/Blue_Triangle.png"",""images/Blue_Triangle.png"",""images/Blue_Triangle.png"",""images/Blue_Triangle.png"",""images/Blue_Triangle.png"",""images/Blue_Triangle.png""]","true","[[249,120],[183,14],[58,18],[0,129],[66,235],[191,231]]","false",""
"visual-search-circle","142","2.2.0","395777","79142","visual_search_trial","493","","f","","","","","","","","","","null","red_circle","6","[""images/Red_Triangle.png"",""images/Red_Circle.png"",""images/Red_Circle.png"",""images/Red_Circle.png"",""images/Red_Circle.png"",""images/Red_Circle.png"",""images/Red_Circle.png"",""images/Red_Circle.png"",""images/Red_Circle.png""]","true","[[70,12],[10,74],[4,159],[55,228],[138,249],[214,211],[249,133],[226,51],[155,3]]","true",""
"visual-search-circle","143","2.2.0","398002","79142","visual_search_trial","718","","j","","","","","","","","","","null","red_blue_mix","6","[""images/Blue_Circle.png"",""images/Blue_Circle.png"",""images/Blue_Triangle.png"",""images/Red_Circle.png"",""images/Red_Circle.png"",""images/Red_Circle.png"",""images/Blue_Circle.png"",""images/Red_Circle.png"",""images/Blue_Triangle.png""]","true","[[36,36],[0,114],[22,196],[92,245],[177,238],[238,177],[245,92],[196,22],[114,0]]","false",""
"visual-search-circle","144","2.2.0","400114","79142","visual_search_trial","608","","f","","","","","","","","","","null","red_circle","7","[""images/Red_Triangle.png"",""images/Red_Circle.png"",""images/Red_Circle.png""]","true","[[90,245],[246,94],[38,35]]","true",""
"visual-search-circle","145","2.2.0","402185","79142","visual_search_trial","565","","j","","","","","","","","","","null","red_blue_mix","7","[""images/Red_Circle.png"",""images/Blue_Circle.png"",""images/Red_Circle.png"",""images/Blue_Triangle.png"",""images/Red_Circle.png"",""images/Blue_Circle.png""]","true","[[140,0],[25,49],[9,173],[109,249],[224,200],[240,76]]","false",""
"visual-search-circle","146","2.2.0","404396","79142","visual_search_trial","706","","j","","","","","","","","","","null","blue_triangle","7","[""images/Blue_Triangle.png"",""images/Blue_Triangle.png"",""images/Blue_Triangle.png"",""images/Blue_Triangle.png"",""images/Blue_Triangle.png"",""images/Blue_Triangle.png"",""images/Blue_Triangle.png"",""images/Blue_Triangle.png"",""images/Blue_Triangle.png""]","true","[[53,22],[4,92],[11,177],[72,238],[157,245],[227,196],[249,114],[213,36],[135,0]]","false",""
"visual-search-circle","147","2.2.0","406404","79142","visual_search_trial","502","","f","","","","","","","","","","null","red_circle","7","[""images/Red_Triangle.png"",""images/Red_Circle.png"",""images/Red_Circle.png"",""images/Red_Circle.png"",""images/Red_Circle.png"",""images/Red_Circle.png"",""images/Red_Circle.png"",""images/Red_Circle.png"",""images/Red_Circle.png""]","true","[[229,56],[161,5],[76,9],[13,68],[3,153],[49,224],[131,249],[210,216],[249,140]]","true",""
"visual-search-circle","148","2.2.0","408643","79142","visual_search_trial","733","","f","","","","","","","","","","null","red_blue_mix","7","[""images/Red_Triangle.png"",""images/Blue_Triangle.png"",""images/Red_Circle.png"",""images/Red_Circle.png"",""images/Red_Circle.png"",""images/Blue_Triangle.png""]","true","[[129,249],[235,183],[231,58],[120,0],[14,66],[18,191]]","true",""
"visual-search-circle","149","2.2.0","410780","79142","visual_search_trial","632","","f","","","","","","","","","","null","blue_triangle","7","[""images/Red_Triangle.png"",""images/Blue_Triangle.png"",""images/Blue_Triangle.png"",""images/Blue_Triangle.png"",""images/Blue_Triangle.png"",""images/Blue_Triangle.png"",""images/Blue_Triangle.png"",""images/Blue_Triangle.png"",""images/Blue_Triangle.png""]","true","[[0,125],[29,205],[103,248],[187,233],[242,167],[242,82],[187,16],[103,1],[29,44]]","true",""
"visual-search-circle","150","2.2.0","412769","79142","visual_search_trial","483","","j","","","","","","","","","","null","red_blue_mix","7","[""images/Blue_Triangle.png"",""images/Red_Circle.png"",""images/Red_Circle.png"",""images/Blue_Circle.png"",""images/Blue_Circle.png"",""images/Red_Circle.png"",""images/Blue_Circle.png"",""images/Blue_Circle.png"",""images/Red_Circle.png""]","true","[[20,193],[88,244],[173,240],[236,181],[246,96],[200,25],[118,0],[39,33],[0,109]]","false",""
"visual-search-circle","151","2.2.0","414810","79142","visual_search_trial","534","","f","","","","","","","","","","null","blue_triangle","7","[""images/Red_Triangle.png"",""images/Blue_Triangle.png"",""images/Blue_Triangle.png"",""images/Blue_Triangle.png"",""images/Blue_Triangle.png"",""images/Blue_Triangle.png""]","true","[[92,4],[4,92],[36,213],[157,245],[245,157],[213,36]]","true",""
"visual-search-circle","152","2.2.0","416890","79142","visual_search_trial","575","","f","","","","","","","","","","null","red_blue_mix","7","[""images/Red_Triangle.png"",""images/Blue_Circle.png"",""images/Blue_Triangle.png"",""images/Red_Circle.png"",""images/Red_Circle.png"",""images/Blue_Triangle.png"",""images/Blue_Triangle.png"",""images/Blue_Triangle.png"",""images/Blue_Triangle.png""]","true","[[248,105],[207,30],[127,0],[46,27],[2,101],[15,185],[80,241],[165,243],[232,189]]","true",""
"visual-search-circle","153","2.2.0","419038","79142","visual_search_trial","641","","j","","","","","","","","","","null","red_circle","7","[""images/Red_Circle.png"",""images/Red_Circle.png"",""images/Red_Circle.png"",""images/Red_Circle.png"",""images/Red_Circle.png"",""images/Red_Circle.png"",""images/Red_Circle.png"",""images/Red_Circle.png"",""images/Red_Circle.png""]","true","[[49,25],[3,96],[13,181],[76,240],[161,244],[229,193],[249,109],[210,33],[131,0]]","false",""
"visual-search-circle","154","2.2.0","421201","79142","visual_search_trial","658","","j","","","","","","","","","","null","red_blue_mix","7","[""images/Red_Circle.png"",""images/Red_Circle.png"",""images/Blue_Circle.png""]","true","[[243,86],[32,41],[99,247]]","false",""
"visual-search-circle","155","2.2.0","423241","79142","visual_search_trial","536","","f","","","","","","","","","","null","red_circle","7","[""images/Red_Triangle.png"",""images/Red_Circle.png"",""images/Red_Circle.png"",""images/Red_Circle.png"",""images/Red_Circle.png"",""images/Red_Circle.png""]","true","[[194,228],[249,116],[179,12],[55,21],[0,133],[70,237]]","true",""
"visual-search-circle","156","2.2.0","425301","79142","visual_search_trial","556","","f","","","","","","","","","","null","blue_triangle","7","[""images/Red_Triangle.png"",""images/Blue_Triangle.png"",""images/Blue_Triangle.png""]","true","[[12,179],[228,194],[133,0]]","true",""
"visual-search-circle","157","2.2.0","427467","79142","visual_search_trial","660","","j","","","","","","","","","","null","red_circle","7","[""images/Red_Circle.png"",""images/Red_Circle.png"",""images/Red_Circle.png"",""images/Red_Circle.png"",""images/Red_Circle.png"",""images/Red_Circle.png""]","true","[[223,48],[107,1],[9,78],[26,201],[142,248],[240,171]]","false",""
"visual-search-circle","158","2.2.0","429577","79142","visual_search_trial","606","","f","","","","","","","","","","null","red_blue_mix","7","[""images/Red_Triangle.png"",""images/Red_Circle.png"",""images/Red_Circle.png""]","true","[[249,135],[72,11],[53,227]]","true",""
"visual-search-circle","159","2.2.0","431811","79142","visual_search_trial","727","","j","","","","","","","","","","null","blue_triangle","7","[""images/Blue_Triangle.png"",""images/Blue_Triangle.png"",""images/Blue_Triangle.png"",""images/Blue_Triangle.png"",""images/Blue_Triangle.png"",""images/Blue_Triangle.png""]","true","[[249,111],[175,10],[51,23],[0,138],[74,239],[198,226]]","false",""
"visual-search-circle","160","2.2.0","433973","79142","visual_search_trial","657","","j","","","","","","","","","","null","red_circle","7","[""images/Red_Circle.png"",""images/Red_Circle.png"",""images/Red_Circle.png""]","true","[[239,175],[111,0],[23,198]]","false",""
"visual-search-circle","161","2.2.0","435983","79142","visual_search_trial","504","","j","","","","","","","","","","null","blue_triangle","7","[""images/Blue_Triangle.png"",""images/Blue_Triangle.png"",""images/Blue_Triangle.png""]","true","[[70,12],[55,228],[249,133]]","false",""
"html-keyboard-response","162","2.1.0","438918","79142","break","2932","<p>Great job so far! Please rest for a few seconds before continuing.</p>
                 <p>Press the <strong>M</strong> key on your keyboard to continue.</p>","m","","","","","","","","","","","","","","","","","M"
"visual-search-circle","163","2.2.0","441073","79142","visual_search_trial","650","","f","","","","","","","","","","null","red_circle","8","[""images/Red_Triangle.png"",""images/Red_Circle.png"",""images/Red_Circle.png"",""images/Red_Circle.png"",""images/Red_Circle.png"",""images/Red_Circle.png""]","true","[[131,0],[20,56],[13,181],[118,249],[229,193],[236,68]]","true",""
"visual-search-circle","164","2.2.0","443580","79142","visual_search_trial","999","","f","","","","","","","","","","null","blue_triangle","8","[""images/Red_Triangle.png"",""images/Blue_Triangle.png"",""images/Blue_Triangle.png"",""images/Blue_Triangle.png"",""images/Blue_Triangle.png"",""images/Blue_Triangle.png"",""images/Blue_Triangle.png"",""images/Blue_Triangle.png"",""images/Blue_Triangle.png""]","true","[[101,2],[27,46],[0,127],[30,207],[105,248],[189,232],[243,165],[241,80],[185,15]]","true",""
"visual-search-circle","165","2.2.0","445840","79142","visual_search_trial","754","","f","","","","","","","","","","null","red_circle","8","[""images/Red_Circle.png"",""images/Red_Circle.png"",""images/Red_Circle.png""]","false","[[72,238],[249,114],[53,22]]","false",""
"visual-search-circle","166","2.2.0","448199","79142","visual_search_trial","854","","j","","","","","","","","","","null","blue_triangle","8","[""images/Blue_Triangle.png"",""images/Blue_Triangle.png"",""images/Blue_Triangle.png""]","true","[[155,3],[4,159],[214,211]]","false",""
"visual-search-circle","167","2.2.0","450330","79142","visual_search_trial","626","","f","","","","","","","","","","null","red_blue_mix","8","[""images/Red_Triangle.png"",""images/Blue_Circle.png"",""images/Blue_Triangle.png"",""images/Red_Circle.png"",""images/Blue_Circle.png"",""images/Red_Circle.png""]","true","[[72,11],[0,114],[53,227],[177,238],[249,135],[196,22]]","true",""
"visual-search-circle","168","2.2.0","452326","79142","visual_search_trial","491","","j","","","","","","","","","","null","red_circle","8","[""images/Red_Triangle.png"",""images/Red_Circle.png"",""images/Red_Circle.png""]","false","[[150,247],[217,41],[6,86]]","true",""
"visual-search-circle","169","2.2.0","454355","79142","visual_search_trial","524","","f","","","","","","","","","","null","blue_triangle","8","[""images/Red_Triangle.png"",""images/Blue_Triangle.png"",""images/Blue_Triangle.png""]","true","[[249,133],[70,12],[55,228]]","true",""
"visual-search-circle","170","2.2.0","456350","79142","visual_search_trial","489","","f","","","","","","","","","","null","red_blue_mix","8","[""images/Red_Triangle.png"",""images/Blue_Circle.png"",""images/Blue_Circle.png"",""images/Red_Circle.png"",""images/Red_Circle.png"",""images/Blue_Circle.png"",""images/Blue_Circle.png"",""images/Blue_Circle.png"",""images/Blue_Triangle.png""]","true","[[76,9],[13,68],[3,153],[49,224],[131,249],[210,216],[249,140],[229,56],[161,5]]","true",""
"visual-search-circle","171","2.2.0","458314","79142","visual_search_trial","458","","j","","","","","","","","","","null","red_circle","8","[""images/Red_Circle.png"",""images/Red_Circle.png"",""images/Red_Circle.png"",""images/Red_Circle.png"",""images/Red_Circle.png"",""images/Red_Circle.png""]","true","[[248,105],[169,8],[46,27],[1,144],[80,241],[203,222]]","false",""
"visual-search-circle","172","2.2.0","460373","79142","visual_search_trial","552","","j","","","","","","","","","","null","blue_triangle","8","[""images/Blue_Triangle.png"",""images/Blue_Triangle.png"",""images/Blue_Triangle.png"",""images/Blue_Triangle.png"",""images/Blue_Triangle.png"",""images/Blue_Triangle.png"",""images/Blue_Triangle.png"",""images/Blue_Triangle.png"",""images/Blue_Triangle.png""]","true","[[0,111],[21,194],[90,245],[175,239],[237,179],[246,94],[198,23],[116,0],[38,35]]","false",""
"visual-search-circle","173","2.2.0","462464","79142","visual_search_trial","586","","f","","","","","","","","","","null","red_blue_mix","8","[""images/Red_Circle.png"",""images/Red_Circle.png"",""images/Blue_Circle.png"",""images/Red_Circle.png"",""images/Blue_Circle.png"",""images/Red_Circle.png""]","false","[[25,200],[140,249],[240,173],[224,49],[109,0],[9,76]]","false",""
"visual-search-circle","174","2.2.0","464919","79142","visual_search_trial","949","","j","","","","","","","","","","null","blue_triangle","8","[""images/Blue_Triangle.png"",""images/Blue_Triangle.png"",""images/Blue_Triangle.png"",""images/Blue_Triangle.png"",""images/Blue_Triangle.png"",""images/Blue_Triangle.png""]","true","[[246,153],[210,33],[88,5],[3,96],[39,216],[161,244]]","false",""
"visual-search-circle","175","2.2.0","467024","79142","visual_search_trial","597","","f","","","","","","","","","","null","red_circle","8","[""images/Red_Circle.png"",""images/Red_Circle.png"",""images/Red_Circle.png"",""images/Red_Circle.png"",""images/Red_Circle.png"",""images/Red_Circle.png"",""images/Red_Circle.png"",""images/Red_Circle.png"",""images/Red_Circle.png""]","false","[[35,211],[111,249],[194,228],[245,159],[239,74],[179,12],[94,3],[23,51],[0,133]]","false",""
"visual-search-circle","176","2.2.0","469665","79142","visual_search_trial","1137","","j","","","","","","","","","","null","red_blue_mix","8","[""images/Red_Circle.png"",""images/Blue_Triangle.png"",""images/Blue_Circle.png""]","true","[[35,211],[245,159],[94,3]]","false",""
"visual-search-circle","177","2.2.0","472255","79142","visual_search_trial","1084","","f","","","","","","","","","","null","blue_triangle","8","[""images/Red_Triangle.png"",""images/Blue_Triangle.png"",""images/Blue_Triangle.png"",""images/Blue_Triangle.png"",""images/Blue_Triangle.png"",""images/Blue_Triangle.png""]","true","[[82,7],[1,103],[44,220],[167,242],[248,146],[205,29]]","true",""
"visual-search-circle","178","2.2.0","474468","79142","visual_search_trial","708","","f","","","","","","","","","","null","red_blue_mix","8","[""images/Red_Triangle.png"",""images/Blue_Triangle.png"",""images/Blue_Circle.png""]","true","[[249,114],[53,22],[72,238]]","true",""
"visual-search-circle","179","2.2.0","476594","79142","visual_search_trial","619","","f","","","","","","","","","","null","red_circle","8","[""images/Red_Triangle.png"",""images/Red_Circle.png"",""images/Red_Circle.png"",""images/Red_Circle.png"",""images/Red_Circle.png"",""images/Red_Circle.png"",""images/Red_Circle.png"",""images/Red_Circle.png"",""images/Red_Circle.png""]","true","[[248,144],[232,60],[165,6],[80,8],[15,64],[2,148],[46,222],[127,249],[207,219]]","true",""
"visual-search-circle","180","2.2.0","478715","79142","visual_search_trial","617","","j","","","","","","","","","","null","red_blue_mix","8","[""images/Blue_Triangle.png"",""images/Blue_Circle.png"",""images/Blue_Circle.png"",""images/Blue_Triangle.png"",""images/Blue_Triangle.png"",""images/Red_Circle.png"",""images/Blue_Triangle.png"",""images/Blue_Circle.png"",""images/Red_Circle.png""]","true","[[175,239],[237,179],[246,94],[198,23],[116,0],[38,35],[0,111],[21,194],[90,245]]","false",""
"visual-search-circle","181","2.2.0","480884","79142","visual_search_trial","665","","j","","","","","","","","","","null","red_blue_mix","9","[""images/Red_Circle.png"",""images/Red_Circle.png"",""images/Red_Circle.png"",""images/Blue_Circle.png"",""images/Blue_Triangle.png"",""images/Red_Circle.png""]","true","[[118,0],[13,68],[20,193],[131,249],[236,181],[229,56]]","false",""
"visual-search-circle","182","2.2.0","483010","79142","visual_search_trial","621","","j","","","","","","","","","","null","blue_triangle","9","[""images/Blue_Triangle.png"",""images/Blue_Triangle.png"",""images/Blue_Triangle.png"",""images/Blue_Triangle.png"",""images/Blue_Triangle.png"",""images/Blue_Triangle.png""]","true","[[109,0],[9,76],[25,200],[140,249],[240,173],[224,49]]","false",""
"visual-search-circle","183","2.2.0","485273","79142","visual_search_trial","759","","j","","","","","","","","","","null","red_circle","9","[""images/Red_Circle.png"",""images/Red_Circle.png"",""images/Red_Circle.png""]","true","[[161,244],[210,33],[3,96]]","false",""
"visual-search-circle","184","2.2.0","487287","79142","visual_search_trial","511","","j","","","","","","","","","","null","blue_triangle","9","[""images/Blue_Triangle.png"",""images/Blue_Triangle.png"",""images/Blue_Triangle.png""]","true","[[111,249],[239,74],[23,51]]","false",""
"visual-search-circle","185","2.2.0","489346","79142","visual_search_trial","557","","f","","","","","","","","","","null","red_circle","9","[""images/Red_Triangle.png"",""images/Red_Circle.png"",""images/Red_Circle.png"",""images/Red_Circle.png"",""images/Red_Circle.png"",""images/Red_Circle.png"",""images/Red_Circle.png"",""images/Red_Circle.png"",""images/Red_Circle.png""]","true","[[33,210],[109,249],[193,229],[244,161],[240,76],[181,13],[96,3],[25,49],[0,131]]","true",""
"visual-search-circle","186","2.2.0","491463","79142","visual_search_trial","610","","f","","","","","","","","","","null","blue_triangle","9","[""images/Red_Triangle.png"",""images/Blue_Triangle.png"",""images/Blue_Triangle.png"",""images/Blue_Triangle.png"",""images/Blue_Triangle.png"",""images/Blue_Triangle.png"",""images/Blue_Triangle.png"",""images/Blue_Triangle.png"",""images/Blue_Triangle.png""]","true","[[233,62],[167,7],[82,7],[16,62],[1,146],[44,220],[125,250],[205,220],[248,146]]","true",""
"visual-search-circle","187","2.2.0","493448","79142","visual_search_trial","482","","j","","","","","","","","","","null","red_blue_mix","9","[""images/Red_Triangle.png"",""images/Red_Circle.png"",""images/Blue_Circle.png"",""images/Red_Circle.png"",""images/Red_Circle.png"",""images/Blue_Circle.png""]","false","[[122,249],[232,189],[234,64],[127,0],[17,60],[15,185]]","true",""
"visual-search-circle","188","2.2.0","495474","79142","visual_search_trial","520","","j","","","","","","","","","","null","red_circle","9","[""images/Red_Circle.png"",""images/Red_Circle.png"",""images/Red_Circle.png"",""images/Red_Circle.png"",""images/Red_Circle.png"",""images/Red_Circle.png"",""images/Red_Circle.png"",""images/Red_Circle.png"",""images/Red_Circle.png""]","true","[[142,1],[58,18],[6,86],[9,171],[66,235],[150,247],[223,201],[249,120],[217,41]]","false",""
"visual-search-circle","189","2.2.0","497507","79142","visual_search_trial","526","","f","","","","","","","","","","null","red_blue_mix","9","[""images/Red_Triangle.png"",""images/Blue_Triangle.png"",""images/Blue_Triangle.png"",""images/Red_Circle.png"",""images/Blue_Circle.png"",""images/Red_Circle.png"",""images/Red_Circle.png"",""images/Blue_Circle.png"",""images/Red_Circle.png""]","true","[[228,55],[159,4],[74,10],[12,70],[3,155],[51,226],[133,249],[211,214],[249,138]]","true",""
"visual-search-circle","190","2.2.0","499527","79142","visual_search_trial","517","","f","","","","","","","","","","null","red_circle","9","[""images/Red_Triangle.png"",""images/Red_Circle.png"",""images/Red_Circle.png""]","true","[[165,6],[2,148],[207,219]]","true",""
"visual-search-circle","191","2.2.0","502173","79142","visual_search_trial","1139","","j","","","","","","","","","","null","blue_triangle","9","[""images/Blue_Triangle.png"",""images/Blue_Triangle.png"",""images/Blue_Triangle.png"",""images/Blue_Triangle.png"",""images/Blue_Triangle.png"",""images/Blue_Triangle.png"",""images/Blue_Triangle.png"",""images/Blue_Triangle.png"",""images/Blue_Triangle.png""]","true","[[169,241],[234,185],[247,101],[203,27],[122,0],[42,30],[1,105],[17,189],[84,243]]","false",""
"visual-search-circle","192","2.2.0","504427","79142","visual_search_trial","749","","f","","","","","","","","","","null","red_blue_mix","9","[""images/Red_Triangle.png"",""images/Red_Circle.png"",""images/Blue_Triangle.png""]","true","[[101,2],[30,207],[243,165]]","true",""
"visual-search-circle","193","2.2.0","506311","79142","visual_search_trial","380","","j","","","","","","","","","","null","blue_triangle","9","[""images/Red_Triangle.png"",""images/Blue_Triangle.png"",""images/Blue_Triangle.png""]","false","[[60,17],[64,234],[249,122]]","true",""
"visual-search-circle","194","2.2.0","508660","79142","visual_search_trial","842","","j","","","","","","","","","","null","red_blue_mix","9","[""images/Red_Circle.png"",""images/Blue_Triangle.png"",""images/Red_Circle.png"",""images/Red_Circle.png"",""images/Blue_Triangle.png"",""images/Blue_Triangle.png"",""images/Blue_Circle.png"",""images/Blue_Triangle.png"",""images/Blue_Circle.png""]","true","[[138,0],[55,21],[4,90],[10,175],[70,237],[155,246],[226,198],[249,116],[214,38]]","false",""
"visual-search-circle","195","2.2.0","510749","79142","visual_search_trial","585","","j","","","","","","","","","","null","red_circle","9","[""images/Red_Circle.png"",""images/Red_Circle.png"",""images/Red_Circle.png"",""images/Red_Circle.png"",""images/Red_Circle.png"",""images/Red_Circle.png""]","true","[[185,234],[249,127],[189,17],[64,15],[0,122],[60,232]]","false",""
"visual-search-circle","196","2.2.0","512773","79142","visual_search_trial","520","","f","","","","","","","","","","null","blue_triangle","9","[""images/Red_Triangle.png"",""images/Blue_Triangle.png"",""images/Blue_Triangle.png"",""images/Blue_Triangle.png"",""images/Blue_Triangle.png"",""images/Blue_Triangle.png""]","true","[[249,116],[179,12],[55,21],[0,133],[70,237],[194,228]]","true",""
"visual-search-circle","197","2.2.0","514863","79142","visual_search_trial","585","","j","","","","","","","","","","null","red_blue_mix","9","[""images/Blue_Triangle.png"",""images/Blue_Triangle.png"",""images/Blue_Circle.png""]","true","[[249,127],[64,15],[60,232]]","false",""
"visual-search-circle","198","2.2.0","516928","79142","visual_search_trial","560","","f","","","","","","","","","","null","red_circle","9","[""images/Red_Triangle.png"",""images/Red_Circle.png"",""images/Red_Circle.png"",""images/Red_Circle.png"",""images/Red_Circle.png"",""images/Red_Circle.png""]","true","[[2,148],[84,243],[207,219],[247,101],[165,6],[42,30]]","true",""
"html-keyboard-response","199","2.1.0","518963","79142","break","2035","<p>Great job so far! Please rest for a few seconds before continuing.</p>
                 <p>Press the <strong>T</strong> key on your keyboard to continue.</p>","t","","","","","","","","","","","","","","","","","T"
"visual-search-circle","200","2.2.0","521037","79142","visual_search_trial","570","","j","","","","","","","","","","null","red_circle","10","[""images/Red_Triangle.png"",""images/Red_Circle.png"",""images/Red_Circle.png"",""images/Red_Circle.png"",""images/Red_Circle.png"",""images/Red_Circle.png"",""images/Red_Circle.png"",""images/Red_Circle.png"",""images/Red_Circle.png""]","false","[[88,244],[173,240],[236,181],[246,96],[200,25],[118,0],[39,33],[0,109],[20,193]]","true",""
"visual-search-circle","201","2.2.0","523328","79142","visual_search_trial","788","","j","","","","","","","","","","null","blue_triangle","10","[""images/Blue_Triangle.png"",""images/Blue_Triangle.png"",""images/Blue_Triangle.png""]","true","[[76,9],[49,224],[249,140]]","false",""
"visual-search-circle","202","2.2.0","525510","79142","visual_search_trial","677","","j","","","","","","","","","","null","red_blue_mix","10","[""images/Blue_Circle.png"",""images/Blue_Triangle.png"",""images/Blue_Circle.png""]","true","[[159,245],[211,35],[3,94]]","false",""
"visual-search-circle","203","2.2.0","527616","79142","visual_search_trial","602","","f","","","","","","","","","","null","blue_triangle","10","[""images/Red_Triangle.png"",""images/Blue_Triangle.png"",""images/Blue_Triangle.png"",""images/Blue_Triangle.png"",""images/Blue_Triangle.png"",""images/Blue_Triangle.png""]","true","[[86,243],[208,217],[247,99],[163,6],[41,32],[2,150]]","true",""
"visual-search-circle","204","2.2.0","529914","79142","visual_search_trial","792","","j","","","","","","","","","","null","red_circle","10","[""images/Red_Circle.png"",""images/Red_Circle.png"",""images/Red_Circle.png"",""images/Red_Circle.png"",""images/Red_Circle.png"",""images/Red_Circle.png"",""images/Red_Circle.png"",""images/Red_Circle.png"",""images/Red_Circle.png""]","true","[[146,248],[220,205],[250,125],[220,44],[146,1],[62,16],[7,82],[7,167],[62,233]]","false",""
"visual-search-circle","205","2.2.0","532128","79142","visual_search_trial","709","","f","","","","","","","","","","null","red_blue_mix","10","[""images/Red_Triangle.png"",""images/Blue_Triangle.png"",""images/Blue_Triangle.png"",""images/Red_Circle.png"",""images/Blue_Circle.png"",""images/Blue_Triangle.png""]","true","[[222,46],[105,1],[8,80],[27,203],[144,248],[241,169]]","true",""
"visual-search-circle","206","2.2.0","534261","79142","visual_search_trial","629","","f","","","","","","","","","","null","blue_triangle","10","[""images/Red_Triangle.png"",""images/Blue_Triangle.png"",""images/Blue_Triangle.png"",""images/Blue_Triangle.png"",""images/Blue_Triangle.png"",""images/Blue_Triangle.png"",""images/Blue_Triangle.png"",""images/Blue_Triangle.png"",""images/Blue_Triangle.png""]","true","[[68,236],[153,246],[224,200],[249,118],[216,39],[140,0],[56,20],[5,88],[9,173]]","true",""
"visual-search-circle","207","2.2.0","536407","79142","visual_search_trial","641","","j","","","","","","","","","","null","red_circle","10","[""images/Red_Circle.png"",""images/Red_Circle.png"",""images/Red_Circle.png""]","true","[[80,241],[248,105],[46,27]]","false",""
"visual-search-circle","208","2.2.0","538840","79142","visual_search_trial","928","","j","","","","","","","","","","null","red_blue_mix","10","[""images/Blue_Triangle.png"",""images/Blue_Circle.png"",""images/Red_Circle.png"",""images/Blue_Triangle.png"",""images/Red_Circle.png"",""images/Blue_Circle.png""]","true","[[237,179],[228,55],[116,0],[12,70],[21,194],[133,249]]","false",""
"visual-search-circle","209","2.2.0","540984","79142","visual_search_trial","640","","f","","","","","","","","","","null","red_circle","10","[""images/Red_Triangle.png"",""images/Red_Circle.png"",""images/Red_Circle.png""]","true","[[8,169],[222,203],[144,1]]","true",""
"visual-search-circle","210","2.2.0","543321","79142","visual_search_trial","830","","j","","","","","","","","","","null","red_blue_mix","10","[""images/Blue_Circle.png"",""images/Blue_Circle.png"",""images/Blue_Circle.png"",""images/Red_Circle.png"",""images/Blue_Circle.png"",""images/Red_Circle.png"",""images/Blue_Triangle.png"",""images/Red_Circle.png"",""images/Red_Circle.png""]","true","[[131,249],[210,216],[249,140],[229,56],[161,5],[76,9],[13,68],[3,153],[49,224]]","false",""
"visual-search-circle","211","2.2.0","545387","79142","visual_search_trial","563","","j","","","","","","","","","","null","red_circle","10","[""images/Red_Circle.png"",""images/Red_Circle.png"",""images/Red_Circle.png"",""images/Red_Circle.png"",""images/Red_Circle.png"",""images/Red_Circle.png""]","true","[[226,51],[111,0],[10,74],[23,198],[138,249],[239,175]]","false",""
"visual-search-circle","212","2.2.0","547649","79142","visual_search_trial","757","","f","","","","","","","","","","null","red_blue_mix","10","[""images/Red_Triangle.png"",""images/Red_Circle.png"",""images/Blue_Circle.png""]","true","[[96,3],[33,210],[244,161]]","true",""
"visual-search-circle","213","2.2.0","549674","79142","visual_search_trial","519","","j","","","","","","","","","","null","blue_triangle","10","[""images/Blue_Triangle.png"",""images/Blue_Triangle.png"",""images/Blue_Triangle.png"",""images/Blue_Triangle.png"",""images/Blue_Triangle.png"",""images/Blue_Triangle.png"",""images/Blue_Triangle.png"",""images/Blue_Triangle.png"",""images/Blue_Triangle.png""]","true","[[82,242],[167,242],[233,187],[248,103],[205,29],[125,0],[44,29],[1,103],[16,187]]","false",""
"visual-search-circle","214","2.2.0","552337","79142","visual_search_trial","1157","","f","","","","","","","","","","null","red_blue_mix","10","[""images/Red_Triangle.png"",""images/Blue_Triangle.png"",""images/Blue_Circle.png"",""images/Red_Circle.png"",""images/Red_Circle.png"",""images/Red_Circle.png"",""images/Red_Circle.png"",""images/Blue_Triangle.png"",""images/Blue_Circle.png""]","true","[[205,29],[125,0],[44,29],[1,103],[16,187],[82,242],[167,242],[233,187],[248,103]]","true",""
"visual-search-circle","215","2.2.0","554414","79142","visual_search_trial","572","","j","","","","","","","","","","null","blue_triangle","10","[""images/Blue_Triangle.png"",""images/Blue_Triangle.png"",""images/Blue_Triangle.png"",""images/Blue_Triangle.png"",""images/Blue_Triangle.png"",""images/Blue_Triangle.png""]","true","[[240,173],[224,49],[109,0],[9,76],[25,200],[140,249]]","false",""
"visual-search-circle","216","2.2.0","556708","79142","visual_search_trial","789","","f","","","","","","","","","","null","red_circle","10","[""images/Red_Triangle.png"",""images/Red_Circle.png"",""images/Red_Circle.png"",""images/Red_Circle.png"",""images/Red_Circle.png"",""images/Red_Circle.png""]","true","[[140,249],[240,173],[224,49],[109,0],[9,76],[25,200]]","true",""
"visual-search-circle","217","2.2.0","558747","79142","visual_search_trial","534","","f","","","","","","","","","","null","blue_triangle","10","[""images/Red_Triangle.png"",""images/Blue_Triangle.png"",""images/Blue_Triangle.png""]","true","[[96,246],[244,88],[33,39]]","true",""
"visual-search-circle","218","2.2.0","560713","79142","visual_search_trial","463","","j","","","","","","","","","","null","blue_triangle","11","[""images/Red_Triangle.png"",""images/Blue_Triangle.png"",""images/Blue_Triangle.png""]","false","[[10,74],[138,249],[226,51]]","true",""
"visual-search-circle","219","2.2.0","562755","79142","visual_search_trial","535","","j","","","","","","","","","","null","red_circle","11","[""images/Red_Circle.png"",""images/Red_Circle.png"",""images/Red_Circle.png"",""images/Red_Circle.png"",""images/Red_Circle.png"",""images/Red_Circle.png"",""images/Red_Circle.png"",""images/Red_Circle.png"",""images/Red_Circle.png""]","true","[[146,248],[220,205],[250,125],[220,44],[146,1],[62,16],[7,82],[7,167],[62,233]]","false",""
"visual-search-circle","220","2.2.0","564909","79142","visual_search_trial","650","","j","","","","","","","","","","null","blue_triangle","11","[""images/Blue_Triangle.png"",""images/Blue_Triangle.png"",""images/Blue_Triangle.png""]","true","[[114,249],[238,72],[22,53]]","false",""
"visual-search-circle","221","2.2.0","566958","79142","visual_search_trial","544","","f","","","","","","","","","","null","red_blue_mix","11","[""images/Red_Triangle.png"",""images/Red_Circle.png"",""images/Blue_Circle.png"",""images/Red_Circle.png"",""images/Red_Circle.png"",""images/Red_Circle.png""]","true","[[38,214],[159,245],[246,155],[211,35],[90,4],[3,94]]","true",""
"visual-search-circle","222","2.2.0","569145","79142","visual_search_trial","683","","j","","","","","","","","","","null","red_circle","11","[""images/Red_Circle.png"",""images/Red_Circle.png"",""images/Red_Circle.png"",""images/Red_Circle.png"",""images/Red_Circle.png"",""images/Red_Circle.png""]","true","[[38,35],[3,155],[90,245],[211,214],[246,94],[159,4]]","false",""
"visual-search-circle","223","2.2.0","571188","79142","visual_search_trial","536","","f","","","","","","","","","","null","red_blue_mix","11","[""images/Red_Triangle.png"",""images/Blue_Triangle.png"",""images/Blue_Triangle.png"",""images/Blue_Triangle.png"",""images/Blue_Circle.png"",""images/Blue_Circle.png"",""images/Blue_Circle.png"",""images/Blue_Triangle.png"",""images/Blue_Circle.png""]","true","[[6,84],[8,169],[64,234],[148,247],[222,203],[249,122],[219,42],[144,1],[60,17]]","true",""
"visual-search-circle","224","2.2.0","573326","79142","visual_search_trial","634","","j","","","","","","","","","","null","blue_triangle","11","[""images/Blue_Triangle.png"",""images/Blue_Triangle.png"",""images/Blue_Triangle.png"",""images/Blue_Triangle.png"",""images/Blue_Triangle.png"",""images/Blue_Triangle.png""]","true","[[51,23],[0,138],[74,239],[198,226],[249,111],[175,10]]","false",""
"visual-search-circle","225","2.2.0","575538","79142","visual_search_trial","708","","j","","","","","","","","","","null","red_blue_mix","11","[""images/Blue_Circle.png"",""images/Blue_Circle.png"",""images/Red_Circle.png""]","true","[[242,82],[29,44],[103,248]]","false",""
"visual-search-circle","226","2.2.0","577985","79142","visual_search_trial","942","","f","","","","","","","","","","null","red_circle","11","[""images/Red_Triangle.png"",""images/Red_Circle.png"",""images/Red_Circle.png""]","true","[[32,208],[243,163],[99,2]]","true",""
"visual-search-circle","227","2.2.0","580002","79142","visual_search_trial","514","","f","","","","","","","","","","null","red_blue_mix","11","[""images/Red_Triangle.png"",""images/Blue_Circle.png"",""images/Blue_Triangle.png""]","true","[[36,36],[92,245],[245,92]]","true",""
"visual-search-circle","228","2.2.0","582006","79142","visual_search_trial","498","","j","","","","","","","","","","null","blue_triangle","11","[""images/Red_Triangle.png"",""images/Blue_Triangle.png"",""images/Blue_Triangle.png"",""images/Blue_Triangle.png"",""images/Blue_Triangle.png"",""images/Blue_Triangle.png"",""images/Blue_Triangle.png"",""images/Blue_Triangle.png"",""images/Blue_Triangle.png""]","false","[[249,133],[226,51],[155,3],[70,12],[10,74],[4,159],[55,228],[138,249],[214,211]]","true",""
"visual-search-circle","229","2.2.0","584382","79142","visual_search_trial","870","","j","","","","","","","","","","null","red_blue_mix","11","[""images/Red_Circle.png"",""images/Blue_Circle.png"",""images/Red_Circle.png"",""images/Red_Circle.png"",""images/Blue_Triangle.png"",""images/Blue_Triangle.png""]","true","[[0,111],[51,226],[175,239],[249,138],[198,23],[74,10]]","false",""
"visual-search-circle","230","2.2.0","586527","79142","visual_search_trial","639","","j","","","","","","","","","","null","blue_triangle","11","[""images/Blue_Triangle.png"",""images/Blue_Triangle.png"",""images/Blue_Triangle.png"",""images/Blue_Triangle.png"",""images/Blue_Triangle.png"",""images/Blue_Triangle.png"",""images/Blue_Triangle.png"",""images/Blue_Triangle.png"",""images/Blue_Triangle.png""]","true","[[238,72],[177,11],[92,4],[22,53],[0,135],[36,213],[114,249],[196,227],[245,157]]","false",""
"visual-search-circle","231","2.2.0","588564","79142","visual_search_trial","532","","f","","","","","","","","","","null","red_circle","11","[""images/Red_Triangle.png"",""images/Red_Circle.png"",""images/Red_Circle.png"",""images/Red_Circle.png"",""images/Red_Circle.png"",""images/Red_Circle.png""]","true","[[131,0],[20,56],[13,181],[118,249],[229,193],[236,68]]","true",""
"visual-search-circle","232","2.2.0","590875","79142","visual_search_trial","806","","j","","","","","","","","","","null","red_blue_mix","11","[""images/Blue_Circle.png"",""images/Red_Circle.png"",""images/Red_Circle.png"",""images/Blue_Circle.png"",""images/Red_Circle.png"",""images/Red_Circle.png"",""images/Red_Circle.png"",""images/Blue_Circle.png"",""images/Blue_Circle.png""]","true","[[2,101],[15,185],[80,241],[165,243],[232,189],[248,105],[207,30],[127,0],[46,27]]","false",""
"visual-search-circle","233","2.2.0","593168","79142","visual_search_trial","789","","j","","","","","","","","","","null","red_circle","11","[""images/Red_Circle.png"",""images/Red_Circle.png"",""images/Red_Circle.png""]","true","[[62,16],[62,233],[250,125]]","false",""
"visual-search-circle","234","2.2.0","595487","79142","visual_search_trial","814","","f","","","","","","","","","","null","blue_triangle","11","[""images/Red_Triangle.png"",""images/Blue_Triangle.png"",""images/Blue_Triangle.png"",""images/Blue_Triangle.png"",""images/Blue_Triangle.png"",""images/Blue_Triangle.png""]","true","[[0,140],[76,240],[200,224],[249,109],[173,9],[49,25]]","true",""
