"trial_type","trial_index","plugin_version","time_elapsed","sona_id","phase","rt","stimulus","response","consented","required_key","view_history","question_order","success","timeout","failed_images","failed_audio","failed_video","set_size","distractor_type","block","stimuli_list","correct","locations","target_present","break_key"
"pavlovia","0","null","1253","78831","","","","","","","","","","","","","","","","","","","","",""
"html-button-response","1","2.1.0","6154","78831","informed_consent","4897","
    <div style=""max-width: 900px; margin: 0 auto; padding: 20px; text-align: left; line-height: 1.6;"">
      <h1 style=""text-align: center; color: #333; font-size: 24px; margin-bottom: 10px; font-weight: bold;"">
        INFORMED CONSENT INFORMATION
      </h1>
      <h2 style=""text-align: center; color: #333; font-size: 22px; margin-bottom: 20px; font-weight: bold;"">
        FOR RESEARCH PARTICIPATION
      </h2>
      
      <p style=""margin-bottom: 10px;""><strong>Study Title:</strong> The Effects of Mindfulness and Attention on Life Satisfaction and Memory</p>
      <p style=""margin-bottom: 10px;""><strong>Principal Investigator:</strong> Ella Bremmer</p>
      <p style=""margin-bottom: 10px;""><strong>Co-Principal Investigator:</strong> Dr. Gregory Cox</p>
      <p style=""margin-bottom: 20px;""><strong>IRB Study Number:</strong></p>

      <p style=""margin-bottom: 15px;"">I am a student at the University at Albany, in the Department of Psychology. I am planning to conduct a research study, which I invite you to take part in.</p>
      
      <p style=""margin-bottom: 25px;"">This form has important information about the reasons for doing this study, what we will ask you to do, and the way we would like to use the information we collect about you.</p>

      <h3 style=""color: #333; font-size: 18px; margin-top: 25px; margin-bottom: 10px; font-weight: bold;"">
        Why are you doing this study?
      </h3>
      <p style=""margin-bottom: 15px;"">You are being asked to participate in a research study that aims to understand if there is a relationship between mindfulness, the ability to pay attention, and life satisfaction.</p>
      
      <p style=""margin-bottom: 25px;"">The purpose of this study is to investigate if having better control over one's attention influences overall life satisfaction. Your participation will help us better understand if mindfulness and attention do have a significant effect on life satisfaction (i.e., how people feel about their lives overall). Then you will be asked to perform a conjunction visual search task to test your capacity to direct your attention over a sustained period.</p>

      <h3 style=""color: #333; font-size: 18px; margin-top: 25px; margin-bottom: 10px; font-weight: bold;"">
        Why am I eligible to participate in this study?
      </h3>
      <p style=""margin-bottom: 25px;"">You are eligible to participate because you are a student at UAlbany, are at least 18 years old, and are proficient in English.</p>

      <h3 style=""color: #333; font-size: 18px; margin-top: 25px; margin-bottom: 10px; font-weight: bold;"">
        What will I do if I choose to be in this study?
      </h3>
      <p style=""margin-bottom: 10px;"">If you choose to take part in our study, you will do the following:</p>
      <p style=""margin-bottom: 8px; margin-left: 20px;"">1. Read and agree to the informed consent.</p>
      <p style=""margin-bottom: 8px; margin-left: 40px;"">a. If you choose not to agree to the informed consent, you will be taken back to the SONA site.</p>
      <p style=""margin-bottom: 8px; margin-left: 20px;"">2. Complete a demographic questionnaire that asks about your age, English proficiency, gender, and race.</p>
      <p style=""margin-bottom: 8px; margin-left: 20px;"">3. Read instructions for the visual search task, which asks you to indicate if a target (a red triangle) is present among various other colored shapes. You should press the ""F"" key if a red triangle is present, or the ""J"" key if the target is absent.</p>
      <p style=""margin-bottom: 8px; margin-left: 20px;"">4. You will be asked to respond to 270 visual search trials, whith the opportunity to take short breaks as you go</p>
      <p style=""margin-bottom: 8px; margin-left: 20px;"">5. You will complete the Mindfulness Attention Awareness Scale (MAAS), the Satisfaction With Life Scale (SWLS), and the Big Five Inventory.</p>
      <p style=""margin-bottom: 25px; margin-left: 20px;"">6.	After all questionnaires are completed, participants will be thanked for their time and will be provided the study debriefing. Following the debriefing, you will be sent back to the SONA research site.</p>

      <h3 style=""color: #333; font-size: 18px; margin-top: 25px; margin-bottom: 10px; font-weight: bold;"">
        For how long will I participate?
      </h3>
      <p style=""margin-bottom: 25px;"">This study is a single online session that you can complete on a computer. The study can be completed in less than 30 minutes but could require as long as 45 minutes to complete.</p>

      <h3 style=""color: #333; font-size: 18px; margin-top: 25px; margin-bottom: 10px; font-weight: bold;"">
        Where will I need to go to participate?
      </h3>
      <p style=""margin-bottom: 25px;"">All study procedures will take place online and can be completed wherever you have internet connection.</p>

      <h3 style=""color: #333; font-size: 18px; margin-top: 25px; margin-bottom: 10px; font-weight: bold;"">
        Are there any costs I should be aware of?
      </h3>
      <p style=""margin-bottom: 25px;"">Participation is not expected to incur cost to participants. Free internet access is available anywhere on campus and in the university library.</p>

      <h3 style=""color: #333; font-size: 18px; margin-top: 25px; margin-bottom: 10px; font-weight: bold;"">
        What are the possible risks or discomforts?
      </h3>
      <p style=""margin-bottom: 15px;"">As with all research, there is a chance that confidentiality of the information we collect from you could be breached – we will take steps to minimize this risk, as discussed in more detail below.</p>
      
      <p style=""margin-bottom: 25px;"">The risks associated with participating in this study are minimal; however, you may experience mild discomfort when reflecting on your mindfulness or life satisfaction when answering questionnaires in the study. To help minimize this, you can withdraw from the study at any time without any consequences. The study will take place online, and you will have the opportunity to take breaks while completing the survey to reduce the risk of eye strain associated with the use of electronic devices.</p>

      <h3 style=""color: #333; font-size: 18px; margin-top: 25px; margin-bottom: 10px; font-weight: bold;"">
        What are the possible benefits for me or others?
      </h3>
      <p style=""margin-bottom: 25px;"">While there are no direct personal benefits to participants of this study, you may find value in reflecting on your mindfulness, attention, and its impact on life satisfaction by completing this survey. The data you contribute may help advance society's understanding of how mindfulness and attention relate to overall well-being, potentially informing future programs or interventions aimed at improving student mental health, attention, and life satisfaction.</p>

      <h3 style=""color: #333; font-size: 18px; margin-top: 25px; margin-bottom: 10px; font-weight: bold;"">
        Will I receive compensation for my participation?
      </h3>
      <p style=""margin-bottom: 25px;"">SONA partial class credit will be awarded via the Psychology Department SONA research pool after you complete the survey in its entirety. Participants who withdraw before completing the survey will not receive partial credit. You will not receive monetary compensation for your participation in this study.</p>

      <h3 style=""color: #333; font-size: 18px; margin-top: 25px; margin-bottom: 10px; font-weight: bold;"">
        How will you protect the information you collect about me, and how will that information be shared?
      </h3>
      <p style=""margin-bottom: 15px;"">Results of this study may be used in publications and presentations. Your data will be handled as confidentially as possible, and no identifiable information will be collected to link your data back to you. If results of this study are published or presented, only de-identified summaries of data will be used.</p>
      
      <p style=""margin-bottom: 25px;"">To minimize the risks to confidentiality, all data will be collected anonymously via Pavlovia.org which uses encryption to protect information (https://pavlovia.org/docs/home/ethics). Only the student researcher (Ella Bremmer), mentor (Pierce Johnson), and faculty advisor (Gregory Cox) will have password-protected access to the data. Data will be stored on secure, university approved computers.</p>

      <h3 style=""color: #333; font-size: 18px; margin-top: 25px; margin-bottom: 10px; font-weight: bold;"">
        Will my data be used in future research?
      </h3>
      <p style=""margin-bottom: 25px;"">No personal identifiers will be collected in the data you provide us. Data will not be used in future research, and will be deleted after the required retention period.</p>

      <h3 style=""color: #333; font-size: 18px; margin-top: 25px; margin-bottom: 10px; font-weight: bold;"">
        What are my rights as a research participant?
      </h3>
      <p style=""margin-bottom: 15px;"">Participation in this study is voluntary. You do not have to answer any question you do not want to answer. If at any time and for any reason, you would prefer not to participate in this study, please feel free not to. If at any time you would like to stop participating, you are welcome to stop. You can take a break or stop altogether. You may withdraw from this study at any time, and you will not be penalized in any way for deciding to stop participation.</p>
      
      <p style=""margin-bottom: 25px;"">If you decide to withdraw from this study, any information collected from you before withdrawing will not be used, and your data will be deleted.</p>

      <h3 style=""color: #333; font-size: 18px; margin-top: 25px; margin-bottom: 10px; font-weight: bold;"">
        What if I am a University at Albany student or employee?
      </h3>
      <p style=""margin-bottom: 25px;"">You may choose not to participate or to stop participating in this research at any time. This will not affect your class standing, grades, employment, or any other aspects of your relationship with the University at Albany.</p>

      <h3 style=""color: #333; font-size: 18px; margin-top: 25px; margin-bottom: 10px; font-weight: bold;"">
        Who can I contact if I have questions or concerns about this research study?
      </h3>
      <p style=""margin-bottom: 15px;"">If you have questions, please feel free to stop and email the investigator, Ella Bremmer (ebremmer@albany.edu) or advisors, Pierce Johnson (pjohnson4@albany.edu) and Dr. Greg Cox (gecox@albany.edu). If you have questions later, you may also contact the researchers.</p>
      
      <p style=""margin-bottom: 10px;"">If you have any questions about your rights as a participant in this research, you can contact the following office at the University at Albany:</p>
      
      <p style=""margin-bottom: 5px; margin-left: 20px;"">Institutional Review Board</p>
      <p style=""margin-bottom: 5px; margin-left: 20px;"">University at Albany</p>
      <p style=""margin-bottom: 5px; margin-left: 20px;"">Office of Regulatory and Research Compliance</p>
      <p style=""margin-bottom: 5px; margin-left: 20px;"">1400 Washington Ave, Biology 227</p>
      <p style=""margin-bottom: 5px; margin-left: 20px;"">Albany, NY 12222</p>
      <p style=""margin-bottom: 5px; margin-left: 20px;"">Phone: 1-866-857-5459</p>
      <p style=""margin-bottom: 25px; margin-left: 20px;"">Email: rco@albany.edu</p>

      <h3 style=""color: #333; font-size: 18px; margin-top: 30px; margin-bottom: 10px; font-weight: bold;"">
        Consent
      </h3>
      <p style=""margin-bottom: 20px;"">I have read this form and the research study has been explained to me. I have been given the opportunity to ask questions and my questions have been answered. If I have additional questions, I have been told whom to contact. I agree to participate in the research study described above. I understand that I have the opportunity to download and save a copy of this form for my records.</p>

      <div style=""background-color: #f9f9f9; border: 2px solid #4CAF50; border-radius: 5px; padding: 20px; margin-top: 20px; margin-bottom: 20px;"">
        <p style=""margin-bottom: 15px; font-weight: bold;"">To save a copy of this consent form for your records, press Ctrl+P (Windows/Linux) or Cmd+P (Mac) and select ""Save as PDF"".</p>
        <p style=""margin-bottom: 0; font-weight: bold;"">By clicking ""I Agree"" below, I confirm that I agree to participate in the research study described above, and that doing so serves as my written signature consenting to take part in the study.</p>
      </div>
    </div>
  ","0","true","","","","","","","","","","","","","","","",""
"instructions","3","2.1.0","12482","78831","intro_instructions","6326","","","","j","[{""page_index"":0,""viewing_time"":6326}]","","","","","","","","","","","","","",""
"html-keyboard-response","4","2.1.0","14492","78831","intermediate_slide_demo","null","<p style=""font-size:4vw"">Demographic Questionnaire</p>","null","","","","","","","","","","","","","","","","",""
"survey-multi-choice","5","2.1.0","83123","78831","demographics_english","68628","","{""english"":""Strongly agree""}","","","","[0]","","","","","","","","","","","","",""
"survey-text","7","2.1.0","86547","78831","demographics_age","3416","","{""age"":""18""}","","","","","","","","","","","","","","","","",""
"survey-multi-select","9","2.1.0","90055","78831","demographics_gender","3502","","{""gender"":[""Man""]}","","","","[0]","","","","","","","","","","","","",""
"survey-multi-choice","11","2.1.0","94446","78831","demographics_race","4388","","{""race"":""Black or African American""}","","","","[0]","","","","","","","","","","","","",""
"html-keyboard-response","12","2.1.0","96459","78831","intermediate_slide_VS","null","<p style=""font-size:4vw"">Visual Search Task</p>","null","","","","","","","","","","","","","","","","",""
"preload","13","2.1.0","96663","78831","image_preload","","","","","","","","true","false","[]","[]","[]","","","","","","","",""
"html-button-response","14","2.1.0","105728","78831","vs_instructions","9064","<p>On the following screens, you will see a series of colored shapes (triangles, squares, and circles) appear.</p>
    <p>Please Press 'F' if there <strong>is</strong> a red triangle among the shapes you see.</p>
    <p>Press 'J' if there is <strong>not</strong> a red triangle among the shapes you see.</p>","0","","","","","","","","","","","","","","","","",""
"visual-search-circle","15","2.2.0","110446","78831","visual_search_trial","3204","","f","","","","","","","","","","null","blue_triangle","0","[""images/Red_Triangle.png"",""images/Blue_Triangle.png"",""images/Blue_Triangle.png"",""images/Blue_Triangle.png"",""images/Blue_Triangle.png"",""images/Blue_Triangle.png"",""images/Blue_Triangle.png"",""images/Blue_Triangle.png"",""images/Blue_Triangle.png""]","true","[[32,41],[0,120],[26,201],[99,247],[183,235],[240,171],[243,86],[191,18],[107,1]]","true",""
"visual-search-circle","16","2.2.0","114054","78831","visual_search_trial","2089","","f","","","","","","","","","","null","red_circle","0","[""images/Red_Triangle.png"",""images/Red_Circle.png"",""images/Red_Circle.png"",""images/Red_Circle.png"",""images/Red_Circle.png"",""images/Red_Circle.png"",""images/Red_Circle.png"",""images/Red_Circle.png"",""images/Red_Circle.png""]","true","[[249,127],[222,46],[148,2],[64,15],[8,80],[6,165],[60,232],[144,248],[219,207]]","true",""
"visual-search-circle","17","2.2.0","117267","78831","visual_search_trial","1695","","f","","","","","","","","","","null","red_blue_mix","0","[""images/Red_Triangle.png"",""images/Blue_Circle.png"",""images/Blue_Circle.png""]","true","[[217,208],[150,2],[6,163]]","true",""
"visual-search-circle","18","2.2.0","120479","78831","visual_search_trial","1706","","j","","","","","","","","","","null","red_circle","0","[""images/Red_Circle.png"",""images/Red_Circle.png"",""images/Red_Circle.png""]","true","[[53,227],[249,135],[72,11]]","false",""
"visual-search-circle","19","2.2.0","123943","78831","visual_search_trial","1945","","j","","","","","","","","","","null","red_blue_mix","0","[""images/Red_Circle.png"",""images/Blue_Circle.png"",""images/Blue_Triangle.png"",""images/Red_Circle.png"",""images/Red_Circle.png"",""images/Blue_Circle.png"",""images/Red_Circle.png"",""images/Blue_Circle.png"",""images/Red_Circle.png""]","true","[[11,177],[72,238],[157,245],[227,196],[249,114],[213,36],[135,0],[53,22],[4,92]]","false",""
"visual-search-circle","20","2.2.0","126881","78831","visual_search_trial","1416","","j","","","","","","","","","","null","red_circle","0","[""images/Red_Circle.png"",""images/Red_Circle.png"",""images/Red_Circle.png"",""images/Red_Circle.png"",""images/Red_Circle.png"",""images/Red_Circle.png"",""images/Red_Circle.png"",""images/Red_Circle.png"",""images/Red_Circle.png""]","true","[[64,15],[8,80],[6,165],[60,232],[144,248],[219,207],[249,127],[222,46],[148,2]]","false",""
"visual-search-circle","21","2.2.0","129516","78831","visual_search_trial","1125","","f","","","","","","","","","","null","red_blue_mix","0","[""images/Red_Triangle.png"",""images/Blue_Circle.png"",""images/Red_Circle.png"",""images/Blue_Triangle.png"",""images/Blue_Circle.png"",""images/Red_Circle.png"",""images/Blue_Circle.png"",""images/Blue_Triangle.png"",""images/Blue_Circle.png""]","true","[[6,84],[8,169],[64,234],[148,247],[222,203],[249,122],[219,42],[144,1],[60,17]]","true",""
"visual-search-circle","22","2.2.0","132023","78831","visual_search_trial","995","","j","","","","","","","","","","null","blue_triangle","0","[""images/Blue_Triangle.png"",""images/Blue_Triangle.png"",""images/Blue_Triangle.png"",""images/Blue_Triangle.png"",""images/Blue_Triangle.png"",""images/Blue_Triangle.png""]","true","[[0,131],[68,236],[193,229],[249,118],[181,13],[56,20]]","false",""
"visual-search-circle","23","2.2.0","134785","78831","visual_search_trial","1249","","j","","","","","","","","","","null","red_blue_mix","0","[""images/Blue_Triangle.png"",""images/Red_Circle.png"",""images/Blue_Triangle.png""]","true","[[36,213],[245,157],[92,4]]","false",""
"visual-search-circle","24","2.2.0","137110","78831","visual_search_trial","819","","f","","","","","","","","","","null","red_circle","0","[""images/Red_Triangle.png"",""images/Red_Circle.png"",""images/Red_Circle.png""]","true","[[249,122],[60,17],[64,234]]","true",""
"visual-search-circle","25","2.2.0","139323","78831","visual_search_trial","696","","j","","","","","","","","","","null","blue_triangle","0","[""images/Blue_Triangle.png"",""images/Blue_Triangle.png"",""images/Blue_Triangle.png""]","true","[[153,3],[5,161],[216,210]]","false",""
"visual-search-circle","26","2.2.0","141958","78831","visual_search_trial","1115","","f","","","","","","","","","","null","red_blue_mix","0","[""images/Red_Triangle.png"",""images/Blue_Triangle.png"",""images/Blue_Circle.png"",""images/Blue_Triangle.png"",""images/Blue_Circle.png"",""images/Blue_Triangle.png""]","true","[[125,250],[233,187],[233,62],[125,0],[16,62],[16,187]]","true",""
"visual-search-circle","27","2.2.0","144559","78831","visual_search_trial","1088","","f","","","","","","","","","","null","blue_triangle","0","[""images/Red_Triangle.png"",""images/Blue_Triangle.png"",""images/Blue_Triangle.png""]","true","[[125,0],[16,187],[233,187]]","true",""
"visual-search-circle","28","2.2.0","147432","78831","visual_search_trial","1366","","f","","","","","","","","","","null","red_circle","0","[""images/Red_Triangle.png"",""images/Red_Circle.png"",""images/Red_Circle.png"",""images/Red_Circle.png"",""images/Red_Circle.png"",""images/Red_Circle.png""]","true","[[155,246],[245,159],[214,38],[94,3],[4,90],[35,211]]","true",""
"visual-search-circle","29","2.2.0","149470","78831","visual_search_trial","522","","f","","","","","","","","","","null","blue_triangle","0","[""images/Red_Triangle.png"",""images/Blue_Triangle.png"",""images/Blue_Triangle.png"",""images/Blue_Triangle.png"",""images/Blue_Triangle.png"",""images/Blue_Triangle.png""]","true","[[20,193],[131,249],[236,181],[229,56],[118,0],[13,68]]","true",""
"visual-search-circle","30","2.2.0","151694","78831","visual_search_trial","720","","j","","","","","","","","","","null","red_circle","0","[""images/Red_Circle.png"",""images/Red_Circle.png"",""images/Red_Circle.png"",""images/Red_Circle.png"",""images/Red_Circle.png"",""images/Red_Circle.png""]","true","[[129,0],[18,58],[14,183],[120,249],[231,191],[235,66]]","false",""
"visual-search-circle","31","2.2.0","154174","78831","visual_search_trial","971","","j","","","","","","","","","","null","blue_triangle","0","[""images/Blue_Triangle.png"",""images/Blue_Triangle.png"",""images/Blue_Triangle.png"",""images/Blue_Triangle.png"",""images/Blue_Triangle.png"",""images/Blue_Triangle.png"",""images/Blue_Triangle.png"",""images/Blue_Triangle.png"",""images/Blue_Triangle.png""]","true","[[226,198],[249,116],[214,38],[138,0],[55,21],[4,90],[10,175],[70,237],[155,246]]","false",""
"visual-search-circle","32","2.2.0","166739","78831","visual_search_trial","11049","","j","","","","","","","","","","null","red_blue_mix","0","[""images/Blue_Circle.png"",""images/Blue_Triangle.png"",""images/Red_Circle.png"",""images/Blue_Circle.png"",""images/Blue_Circle.png"",""images/Blue_Circle.png""]","true","[[177,11],[53,22],[0,135],[72,238],[196,227],[249,114]]","false",""
"visual-search-circle","33","2.2.0","169293","78831","visual_search_trial","1040","","j","","","","","","","","","","null","red_circle","1","[""images/Red_Circle.png"",""images/Red_Circle.png"",""images/Red_Circle.png"",""images/Red_Circle.png"",""images/Red_Circle.png"",""images/Red_Circle.png"",""images/Red_Circle.png"",""images/Red_Circle.png"",""images/Red_Circle.png""]","true","[[116,249],[198,226],[246,155],[237,70],[175,10],[90,4],[21,55],[0,138],[38,214]]","false",""
"visual-search-circle","34","2.2.0","172237","78831","visual_search_trial","1433","","j","","","","","","","","","","null","red_blue_mix","1","[""images/Blue_Circle.png"",""images/Red_Circle.png"",""images/Red_Circle.png"",""images/Blue_Triangle.png"",""images/Red_Circle.png"",""images/Blue_Triangle.png""]","true","[[159,245],[246,155],[211,35],[90,4],[3,94],[38,214]]","false",""
"visual-search-circle","35","2.2.0","175077","78831","visual_search_trial","1324","","f","","","","","","","","","","null","blue_triangle","1","[""images/Red_Triangle.png"",""images/Blue_Triangle.png"",""images/Blue_Triangle.png""]","true","[[200,25],[0,109],[173,240]]","true",""
"visual-search-circle","36","2.2.0","178025","78831","visual_search_trial","1436","","f","","","","","","","","","","null","red_blue_mix","1","[""images/Red_Triangle.png"",""images/Blue_Circle.png"",""images/Red_Circle.png"",""images/Blue_Triangle.png"",""images/Blue_Triangle.png"",""images/Blue_Triangle.png""]","true","[[142,248],[240,171],[223,48],[107,1],[9,78],[26,201]]","true",""
"visual-search-circle","37","2.2.0","180543","78831","visual_search_trial","997","","f","","","","","","","","","","null","blue_triangle","1","[""images/Red_Triangle.png"",""images/Blue_Triangle.png"",""images/Blue_Triangle.png"",""images/Blue_Triangle.png"",""images/Blue_Triangle.png"",""images/Blue_Triangle.png"",""images/Blue_Triangle.png"",""images/Blue_Triangle.png"",""images/Blue_Triangle.png""]","true","[[240,76],[181,13],[96,3],[25,49],[0,131],[33,210],[109,249],[193,229],[244,161]]","true",""
"visual-search-circle","38","2.2.0","183588","78831","visual_search_trial","1527","","f","","","","","","","","","","null","red_blue_mix","1","[""images/Red_Triangle.png"",""images/Red_Circle.png"",""images/Red_Circle.png"",""images/Blue_Triangle.png"",""images/Blue_Triangle.png"",""images/Red_Circle.png"",""images/Blue_Triangle.png"",""images/Red_Circle.png"",""images/Blue_Triangle.png""]","true","[[239,74],[179,12],[94,3],[23,51],[0,133],[35,211],[111,249],[194,228],[245,159]]","true",""
"visual-search-circle","39","2.2.0","186736","78831","visual_search_trial","1640","","f","","","","","","","","","","null","blue_triangle","1","[""images/Red_Triangle.png"",""images/Blue_Triangle.png"",""images/Blue_Triangle.png"",""images/Blue_Triangle.png"",""images/Blue_Triangle.png"",""images/Blue_Triangle.png""]","true","[[179,237],[249,133],[194,21],[70,12],[0,116],[55,228]]","true",""
"visual-search-circle","40","2.2.0","189228","78831","visual_search_trial","978","","j","","","","","","","","","","null","red_circle","1","[""images/Red_Circle.png"",""images/Red_Circle.png"",""images/Red_Circle.png""]","true","[[60,17],[64,234],[249,122]]","false",""
"visual-search-circle","41","2.2.0","192319","78831","visual_search_trial","1578","","j","","","","","","","","","","null","red_blue_mix","1","[""images/Blue_Circle.png"",""images/Blue_Triangle.png"",""images/Red_Circle.png""]","true","[[88,5],[39,216],[246,153]]","false",""
"visual-search-circle","42","2.2.0","194911","78831","visual_search_trial","1084","","j","","","","","","","","","","null","red_circle","1","[""images/Red_Circle.png"",""images/Red_Circle.png"",""images/Red_Circle.png"",""images/Red_Circle.png"",""images/Red_Circle.png"",""images/Red_Circle.png""]","true","[[127,0],[17,60],[15,185],[122,249],[232,189],[234,64]]","false",""
"visual-search-circle","43","2.2.0","197234","78831","visual_search_trial","810","","j","","","","","","","","","","null","blue_triangle","1","[""images/Blue_Triangle.png"",""images/Blue_Triangle.png"",""images/Blue_Triangle.png""]","true","[[68,236],[249,118],[56,20]]","false",""
"visual-search-circle","44","2.2.0","199770","78831","visual_search_trial","1027","","f","","","","","","","","","","null","red_circle","1","[""images/Red_Triangle.png"",""images/Red_Circle.png"",""images/Red_Circle.png"",""images/Red_Circle.png"",""images/Red_Circle.png"",""images/Red_Circle.png"",""images/Red_Circle.png"",""images/Red_Circle.png"",""images/Red_Circle.png""]","true","[[249,140],[229,56],[161,5],[76,9],[13,68],[3,153],[49,224],[131,249],[210,216]]","true",""
"visual-search-circle","45","2.2.0","203585","78831","visual_search_trial","2298","","f","","","","","","","","","","null","red_blue_mix","1","[""images/Red_Triangle.png"",""images/Blue_Triangle.png"",""images/Blue_Triangle.png""]","true","[[16,62],[125,250],[233,62]]","true",""
"visual-search-circle","46","2.2.0","206465","78831","visual_search_trial","1372","","f","","","","","","","","","","null","red_circle","1","[""images/Red_Triangle.png"",""images/Red_Circle.png"",""images/Red_Circle.png"",""images/Red_Circle.png"",""images/Red_Circle.png"",""images/Red_Circle.png""]","true","[[249,120],[183,14],[58,18],[0,129],[66,235],[191,231]]","true",""
"visual-search-circle","47","2.2.0","209178","78831","visual_search_trial","1200","","j","","","","","","","","","","null","blue_triangle","1","[""images/Blue_Triangle.png"",""images/Blue_Triangle.png"",""images/Blue_Triangle.png"",""images/Blue_Triangle.png"",""images/Blue_Triangle.png"",""images/Blue_Triangle.png""]","true","[[246,96],[161,5],[39,33],[3,153],[88,244],[210,216]]","false",""
"visual-search-circle","48","2.2.0","212186","78831","visual_search_trial","1496","","f","","","","","","","","","","null","red_circle","1","[""images/Red_Triangle.png"",""images/Red_Circle.png"",""images/Red_Circle.png""]","true","[[127,0],[15,185],[232,189]]","true",""
"visual-search-circle","49","2.2.0","215901","78831","visual_search_trial","2202","","j","","","","","","","","","","null","blue_triangle","1","[""images/Blue_Triangle.png"",""images/Blue_Triangle.png"",""images/Blue_Triangle.png"",""images/Blue_Triangle.png"",""images/Blue_Triangle.png"",""images/Blue_Triangle.png"",""images/Blue_Triangle.png"",""images/Blue_Triangle.png"",""images/Blue_Triangle.png""]","true","[[55,228],[138,249],[214,211],[249,133],[226,51],[155,3],[70,12],[10,74],[4,159]]","false",""
"visual-search-circle","50","2.2.0","218849","78831","visual_search_trial","1439","","j","","","","","","","","","","null","red_blue_mix","1","[""images/Blue_Circle.png"",""images/Blue_Circle.png"",""images/Blue_Circle.png"",""images/Blue_Circle.png"",""images/Red_Circle.png"",""images/Blue_Triangle.png"",""images/Blue_Circle.png"",""images/Red_Circle.png"",""images/Blue_Triangle.png""]","true","[[2,99],[14,183],[78,240],[163,243],[231,191],[248,107],[208,32],[129,0],[48,26]]","false",""
"html-keyboard-response","51","2.1.0","224987","78831","break","6138","<p>Great job so far! Please rest for a few seconds before continuing.</p>
                 <p>Press the <strong>Q</strong> key on your keyboard to continue.</p>","q","","","","","","","","","","","","","","","","","Q"
"visual-search-circle","52","2.2.0","228577","78831","visual_search_trial","2074","","j","","","","","","","","","","null","red_blue_mix","2","[""images/Red_Circle.png"",""images/Red_Circle.png"",""images/Red_Circle.png"",""images/Blue_Circle.png"",""images/Blue_Circle.png"",""images/Red_Circle.png""]","true","[[2,99],[41,217],[163,243],[247,150],[208,32],[86,6]]","false",""
"visual-search-circle","53","2.2.0","231361","78831","visual_search_trial","1271","","f","","","","","","","","","","null","blue_triangle","2","[""images/Red_Triangle.png"",""images/Blue_Triangle.png"",""images/Blue_Triangle.png""]","true","[[78,240],[248,107],[48,26]]","true",""
"visual-search-circle","54","2.2.0","233778","78831","visual_search_trial","909","","f","","","","","","","","","","null","red_circle","2","[""images/Red_Triangle.png"",""images/Red_Circle.png"",""images/Red_Circle.png"",""images/Red_Circle.png"",""images/Red_Circle.png"",""images/Red_Circle.png""]","true","[[224,200],[240,76],[140,0],[25,49],[9,173],[109,249]]","true",""
"visual-search-circle","55","2.2.0","236953","78831","visual_search_trial","1661","","j","","","","","","","","","","null","red_blue_mix","2","[""images/Red_Circle.png"",""images/Blue_Triangle.png"",""images/Blue_Triangle.png"",""images/Red_Circle.png"",""images/Blue_Triangle.png"",""images/Blue_Triangle.png"",""images/Blue_Triangle.png"",""images/Blue_Triangle.png"",""images/Blue_Circle.png""]","true","[[210,33],[131,0],[49,25],[3,96],[13,181],[76,240],[161,244],[229,193],[249,109]]","false",""
"visual-search-circle","56","2.2.0","239272","78831","visual_search_trial","802","","j","","","","","","","","","","null","red_circle","2","[""images/Red_Circle.png"",""images/Red_Circle.png"",""images/Red_Circle.png""]","true","[[249,135],[72,11],[53,227]]","false",""
"visual-search-circle","57","2.2.0","241538","78831","visual_search_trial","745","","f","","","","","","","","","","null","blue_triangle","2","[""images/Blue_Triangle.png"",""images/Blue_Triangle.png"",""images/Blue_Triangle.png"",""images/Blue_Triangle.png"",""images/Blue_Triangle.png"",""images/Blue_Triangle.png"",""images/Blue_Triangle.png"",""images/Blue_Triangle.png"",""images/Blue_Triangle.png""]","false","[[0,120],[26,201],[99,247],[183,235],[240,171],[243,86],[191,18],[107,1],[32,41]]","false",""
"visual-search-circle","58","2.2.0","243789","78831","visual_search_trial","739","","f","","","","","","","","","","null","red_blue_mix","2","[""images/Red_Triangle.png"",""images/Blue_Circle.png"",""images/Blue_Circle.png""]","true","[[0,127],[189,232],[185,15]]","true",""
"visual-search-circle","59","2.2.0","245878","78831","visual_search_trial","583","","f","","","","","","","","","","null","red_circle","2","[""images/Red_Triangle.png"",""images/Red_Circle.png"",""images/Red_Circle.png""]","true","[[148,2],[6,165],[219,207]]","true",""
"visual-search-circle","60","2.2.0","248021","78831","visual_search_trial","635","","j","","","","","","","","","","null","blue_triangle","2","[""images/Blue_Triangle.png"",""images/Blue_Triangle.png"",""images/Blue_Triangle.png""]","true","[[120,0],[18,191],[235,183]]","false",""
"visual-search-circle","61","2.2.0","250756","78831","visual_search_trial","1228","","f","","","","","","","","","","null","red_blue_mix","2","[""images/Red_Triangle.png"",""images/Blue_Circle.png"",""images/Blue_Triangle.png"",""images/Blue_Circle.png"",""images/Blue_Circle.png"",""images/Red_Circle.png"",""images/Blue_Circle.png"",""images/Blue_Triangle.png"",""images/Blue_Triangle.png""]","true","[[250,125],[220,44],[146,1],[62,16],[7,82],[7,167],[62,233],[146,248],[220,205]]","true",""
"visual-search-circle","62","2.2.0","253529","78831","visual_search_trial","1255","","j","","","","","","","","","","null","red_circle","2","[""images/Red_Circle.png"",""images/Red_Circle.png"",""images/Red_Circle.png"",""images/Red_Circle.png"",""images/Red_Circle.png"",""images/Red_Circle.png"",""images/Red_Circle.png"",""images/Red_Circle.png"",""images/Red_Circle.png""]","true","[[211,214],[249,138],[228,55],[159,4],[74,10],[12,70],[3,155],[51,226],[133,249]]","false",""
"visual-search-circle","63","2.2.0","256961","78831","visual_search_trial","1917","","f","","","","","","","","","","null","red_blue_mix","2","[""images/Red_Triangle.png"",""images/Blue_Triangle.png"",""images/Red_Circle.png"",""images/Blue_Triangle.png"",""images/Blue_Circle.png"",""images/Blue_Triangle.png""]","true","[[150,247],[243,163],[217,41],[99,2],[6,86],[32,208]]","true",""
"visual-search-circle","64","2.2.0","261182","78831","visual_search_trial","2709","","f","","","","","","","","","","null","red_circle","2","[""images/Red_Triangle.png"",""images/Red_Circle.png"",""images/Red_Circle.png"",""images/Red_Circle.png"",""images/Red_Circle.png"",""images/Red_Circle.png"",""images/Red_Circle.png"",""images/Red_Circle.png"",""images/Red_Circle.png""]","true","[[96,3],[25,49],[0,131],[33,210],[109,249],[193,229],[244,161],[240,76],[181,13]]","true",""
"visual-search-circle","65","2.2.0","263526","78831","visual_search_trial","826","","f","","","","","","","","","","null","blue_triangle","2","[""images/Red_Triangle.png"",""images/Blue_Triangle.png"",""images/Blue_Triangle.png"",""images/Blue_Triangle.png"",""images/Blue_Triangle.png"",""images/Blue_Triangle.png""]","true","[[14,183],[120,249],[231,191],[235,66],[129,0],[18,58]]","true",""
"visual-search-circle","66","2.2.0","265688","78831","visual_search_trial","648","","j","","","","","","","","","","null","red_circle","2","[""images/Red_Circle.png"",""images/Red_Circle.png"",""images/Red_Circle.png"",""images/Red_Circle.png"",""images/Red_Circle.png"",""images/Red_Circle.png""]","true","[[238,177],[227,53],[114,0],[11,72],[22,196],[135,249]]","false",""
"visual-search-circle","67","2.2.0","267832","78831","visual_search_trial","633","","j","","","","","","","","","","null","blue_triangle","2","[""images/Blue_Triangle.png"",""images/Blue_Triangle.png"",""images/Blue_Triangle.png"",""images/Blue_Triangle.png"",""images/Blue_Triangle.png"",""images/Blue_Triangle.png""]","true","[[16,62],[16,187],[125,250],[233,187],[233,62],[125,0]]","false",""
"visual-search-circle","68","2.2.0","270184","78831","visual_search_trial","840","","j","","","","","","","","","","null","red_blue_mix","2","[""images/Blue_Triangle.png"",""images/Blue_Triangle.png"",""images/Blue_Triangle.png""]","true","[[2,101],[165,243],[207,30]]","false",""
"visual-search-circle","69","2.2.0","275088","78831","visual_search_trial","3396","","f","","","","","","","","","","null","blue_triangle","2","[""images/Red_Triangle.png"",""images/Blue_Triangle.png"",""images/Blue_Triangle.png"",""images/Blue_Triangle.png"",""images/Blue_Triangle.png"",""images/Blue_Triangle.png"",""images/Blue_Triangle.png"",""images/Blue_Triangle.png"",""images/Blue_Triangle.png""]","true","[[3,153],[49,224],[131,249],[210,216],[249,140],[229,56],[161,5],[76,9],[13,68]]","true",""
"visual-search-circle","70","2.2.0","277716","78831","visual_search_trial","1117","","f","","","","","","","","","","null","red_circle","3","[""images/Red_Triangle.png"",""images/Red_Circle.png"",""images/Red_Circle.png""]","true","[[17,189],[234,185],[122,0]]","true",""
"visual-search-circle","71","2.2.0","280189","78831","visual_search_trial","955","","j","","","","","","","","","","null","red_blue_mix","3","[""images/Blue_Circle.png"",""images/Blue_Circle.png"",""images/Blue_Triangle.png""]","true","[[179,237],[194,21],[0,116]]","false",""
"visual-search-circle","72","2.2.0","288860","78831","visual_search_trial","7156","","j","","","","","","","","","","null","red_circle","3","[""images/Red_Circle.png"",""images/Red_Circle.png"",""images/Red_Circle.png""]","true","[[245,90],[35,38],[94,246]]","false",""
"visual-search-circle","73","2.2.0","292406","78831","visual_search_trial","2030","","j","","","","","","","","","","null","red_blue_mix","3","[""images/Red_Circle.png"",""images/Blue_Circle.png"",""images/Blue_Circle.png"",""images/Blue_Circle.png"",""images/Blue_Triangle.png"",""images/Blue_Triangle.png"",""images/Red_Circle.png"",""images/Blue_Triangle.png"",""images/Blue_Triangle.png""]","true","[[227,196],[249,114],[213,36],[135,0],[53,22],[4,92],[11,177],[72,238],[157,245]]","false",""
"visual-search-circle","74","2.2.0","294781","78831","visual_search_trial","861","","j","","","","","","","","","","null","blue_triangle","3","[""images/Blue_Triangle.png"",""images/Blue_Triangle.png"",""images/Blue_Triangle.png"",""images/Blue_Triangle.png"",""images/Blue_Triangle.png"",""images/Blue_Triangle.png"",""images/Blue_Triangle.png"",""images/Blue_Triangle.png"",""images/Blue_Triangle.png""]","true","[[248,142],[231,58],[163,6],[78,9],[14,66],[2,150],[48,223],[129,249],[208,217]]","false",""
"visual-search-circle","75","2.2.0","297797","78831","visual_search_trial","1510","","f","","","","","","","","","","null","red_blue_mix","3","[""images/Red_Triangle.png"",""images/Red_Circle.png"",""images/Blue_Triangle.png"",""images/Blue_Circle.png"",""images/Blue_Circle.png"",""images/Red_Circle.png""]","true","[[207,30],[84,6],[2,101],[42,219],[165,243],[247,148]]","true",""
"visual-search-circle","76","2.2.0","303702","78831","visual_search_trial","4389","","j","","","","","","","","","","null","blue_triangle","3","[""images/Blue_Triangle.png"",""images/Blue_Triangle.png"",""images/Blue_Triangle.png""]","true","[[16,187],[233,187],[125,0]]","false",""
"visual-search-circle","77","2.2.0","306183","78831","visual_search_trial","967","","j","","","","","","","","","","null","red_circle","3","[""images/Red_Circle.png"",""images/Red_Circle.png"",""images/Red_Circle.png"",""images/Red_Circle.png"",""images/Red_Circle.png"",""images/Red_Circle.png"",""images/Red_Circle.png"",""images/Red_Circle.png"",""images/Red_Circle.png""]","true","[[214,38],[138,0],[55,21],[4,90],[10,175],[70,237],[155,246],[226,198],[249,116]]","false",""
"visual-search-circle","78","2.2.0","310565","78831","visual_search_trial","2873","","f","","","","","","","","","","null","blue_triangle","3","[""images/Red_Triangle.png"",""images/Blue_Triangle.png"",""images/Blue_Triangle.png"",""images/Blue_Triangle.png"",""images/Blue_Triangle.png"",""images/Blue_Triangle.png"",""images/Blue_Triangle.png"",""images/Blue_Triangle.png"",""images/Blue_Triangle.png""]","true","[[64,234],[148,247],[222,203],[249,122],[219,42],[144,1],[60,17],[6,84],[8,169]]","true",""
"visual-search-circle","79","2.2.0","322531","78831","visual_search_trial","10452","","f","","","","","","","","","","null","red_blue_mix","3","[""images/Red_Triangle.png"",""images/Blue_Circle.png"",""images/Blue_Circle.png"",""images/Blue_Circle.png"",""images/Blue_Triangle.png"",""images/Red_Circle.png"",""images/Blue_Triangle.png"",""images/Red_Circle.png"",""images/Blue_Circle.png""]","true","[[187,16],[103,1],[29,44],[0,125],[29,205],[103,248],[187,233],[242,167],[242,82]]","true",""
"visual-search-circle","80","2.2.0","324944","78831","visual_search_trial","898","","j","","","","","","","","","","null","blue_triangle","3","[""images/Blue_Triangle.png"",""images/Blue_Triangle.png"",""images/Blue_Triangle.png"",""images/Blue_Triangle.png"",""images/Blue_Triangle.png"",""images/Blue_Triangle.png""]","true","[[125,0],[16,62],[16,187],[125,250],[233,187],[233,62]]","false",""
"visual-search-circle","81","2.2.0","327492","78831","visual_search_trial","1036","","f","","","","","","","","","","null","red_circle","3","[""images/Red_Triangle.png"",""images/Red_Circle.png"",""images/Red_Circle.png"",""images/Red_Circle.png"",""images/Red_Circle.png"",""images/Red_Circle.png""]","true","[[196,22],[72,11],[0,114],[53,227],[177,238],[249,135]]","true",""
"visual-search-circle","82","2.2.0","329890","78831","visual_search_trial","881","","j","","","","","","","","","","null","red_blue_mix","3","[""images/Blue_Triangle.png"",""images/Blue_Circle.png"",""images/Blue_Triangle.png"",""images/Red_Circle.png"",""images/Blue_Triangle.png"",""images/Blue_Triangle.png""]","true","[[125,250],[233,187],[233,62],[125,0],[16,62],[16,187]]","false",""
"visual-search-circle","83","2.2.0","332380","78831","visual_search_trial","973","","f","","","","","","","","","","null","blue_triangle","3","[""images/Red_Triangle.png"",""images/Blue_Triangle.png"",""images/Blue_Triangle.png"",""images/Blue_Triangle.png"",""images/Blue_Triangle.png"",""images/Blue_Triangle.png""]","true","[[217,41],[99,2],[6,86],[32,208],[150,247],[243,163]]","true",""
"visual-search-circle","84","2.2.0","340383","78831","visual_search_trial","6494","","j","","","","","","","","","","null","red_circle","3","[""images/Red_Circle.png"",""images/Red_Circle.png"",""images/Red_Circle.png"",""images/Red_Circle.png"",""images/Red_Circle.png"",""images/Red_Circle.png""]","true","[[245,159],[214,38],[94,3],[4,90],[35,211],[155,246]]","false",""
"visual-search-circle","85","2.2.0","343460","78831","visual_search_trial","1567","","f","","","","","","","","","","null","blue_triangle","3","[""images/Red_Triangle.png"",""images/Blue_Triangle.png"",""images/Blue_Triangle.png""]","true","[[10,175],[226,198],[138,0]]","true",""
"visual-search-circle","86","2.2.0","346798","78831","visual_search_trial","1825","","f","","","","","","","","","","null","red_blue_mix","3","[""images/Red_Triangle.png"",""images/Red_Circle.png"",""images/Red_Circle.png""]","true","[[200,224],[173,9],[0,140]]","true",""
"visual-search-circle","87","2.2.0","349548","78831","visual_search_trial","1228","","f","","","","","","","","","","null","red_circle","3","[""images/Red_Triangle.png"",""images/Red_Circle.png"",""images/Red_Circle.png"",""images/Red_Circle.png"",""images/Red_Circle.png"",""images/Red_Circle.png"",""images/Red_Circle.png"",""images/Red_Circle.png"",""images/Red_Circle.png""]","true","[[185,15],[101,2],[27,46],[0,127],[30,207],[105,248],[189,232],[243,165],[241,80]]","true",""
"html-keyboard-response","88","2.1.0","352258","78831","break","2709","<p>Great job so far! Please rest for a few seconds before continuing.</p>
                 <p>Press the <strong>H</strong> key on your keyboard to continue.</p>","h","","","","","","","","","","","","","","","","","H"
"visual-search-circle","89","2.2.0","354538","78831","visual_search_trial","770","","f","","","","","","","","","","null","red_circle","4","[""images/Red_Triangle.png"",""images/Red_Circle.png"",""images/Red_Circle.png"",""images/Red_Circle.png"",""images/Red_Circle.png"",""images/Red_Circle.png""]","true","[[220,44],[103,1],[7,82],[29,205],[146,248],[242,167]]","true",""
"visual-search-circle","90","2.2.0","356625","78831","visual_search_trial","567","","j","","","","","","","","","","null","blue_triangle","4","[""images/Blue_Triangle.png"",""images/Blue_Triangle.png"",""images/Blue_Triangle.png"",""images/Blue_Triangle.png"",""images/Blue_Triangle.png"",""images/Blue_Triangle.png""]","true","[[64,15],[0,122],[60,232],[185,234],[249,127],[189,17]]","false",""
"visual-search-circle","91","2.2.0","358693","78831","visual_search_trial","549","","j","","","","","","","","","","null","red_circle","4","[""images/Red_Circle.png"",""images/Red_Circle.png"",""images/Red_Circle.png"",""images/Red_Circle.png"",""images/Red_Circle.png"",""images/Red_Circle.png"",""images/Red_Circle.png"",""images/Red_Circle.png"",""images/Red_Circle.png""]","true","[[223,201],[249,120],[217,41],[142,1],[58,18],[6,86],[9,171],[66,235],[150,247]]","false",""
"visual-search-circle","92","2.2.0","361940","78831","visual_search_trial","1731","","j","","","","","","","","","","null","blue_triangle","4","[""images/Blue_Triangle.png"",""images/Blue_Triangle.png"",""images/Blue_Triangle.png"",""images/Blue_Triangle.png"",""images/Blue_Triangle.png"",""images/Blue_Triangle.png"",""images/Blue_Triangle.png"",""images/Blue_Triangle.png"",""images/Blue_Triangle.png""]","true","[[101,2],[27,46],[0,127],[30,207],[105,248],[189,232],[243,165],[241,80],[185,15]]","false",""
"visual-search-circle","93","2.2.0","364938","78831","visual_search_trial","1482","","f","","","","","","","","","","null","red_blue_mix","4","[""images/Red_Triangle.png"",""images/Red_Circle.png"",""images/Blue_Circle.png"",""images/Blue_Circle.png"",""images/Blue_Circle.png"",""images/Blue_Triangle.png""]","true","[[5,88],[33,210],[153,246],[244,161],[216,39],[96,3]]","true",""
"visual-search-circle","94","2.2.0","369934","78831","visual_search_trial","3489","","f","","","","","","","","","","null","blue_triangle","4","[""images/Red_Triangle.png"",""images/Blue_Triangle.png"",""images/Blue_Triangle.png"",""images/Blue_Triangle.png"",""images/Blue_Triangle.png"",""images/Blue_Triangle.png"",""images/Blue_Triangle.png"",""images/Blue_Triangle.png"",""images/Blue_Triangle.png""]","true","[[9,173],[68,236],[153,246],[224,200],[249,118],[216,39],[140,0],[56,20],[5,88]]","true",""
"visual-search-circle","95","2.2.0","373200","78831","visual_search_trial","1761","","j","","","","","","","","","","null","red_circle","4","[""images/Red_Circle.png"",""images/Red_Circle.png"",""images/Red_Circle.png""]","true","[[233,62],[16,62],[125,250]]","false",""
"visual-search-circle","96","2.2.0","377169","78831","visual_search_trial","2463","","f","","","","","","","","","","null","red_blue_mix","4","[""images/Red_Triangle.png"",""images/Red_Circle.png"",""images/Blue_Circle.png"",""images/Red_Circle.png"",""images/Red_Circle.png"",""images/Red_Circle.png"",""images/Red_Circle.png"",""images/Blue_Circle.png"",""images/Blue_Triangle.png""]","true","[[103,248],[187,233],[242,167],[242,82],[187,16],[103,1],[29,44],[0,124],[29,205]]","true",""
"visual-search-circle","97","2.2.0","380192","78831","visual_search_trial","1515","","j","","","","","","","","","","null","red_circle","4","[""images/Red_Circle.png"",""images/Red_Circle.png"",""images/Red_Circle.png"",""images/Red_Circle.png"",""images/Red_Circle.png"",""images/Red_Circle.png""]","true","[[32,208],[150,247],[243,163],[217,41],[99,2],[6,86]]","false",""
"visual-search-circle","98","2.2.0","385165","78831","visual_search_trial","3455","","f","","","","","","","","","","null","blue_triangle","4","[""images/Red_Triangle.png"",""images/Blue_Triangle.png"",""images/Blue_Triangle.png"",""images/Blue_Triangle.png"",""images/Blue_Triangle.png"",""images/Blue_Triangle.png""]","true","[[157,245],[245,157],[213,36],[92,4],[4,92],[36,213]]","true",""
"visual-search-circle","99","2.2.0","389910","78831","visual_search_trial","3233","","j","","","","","","","","","","null","red_blue_mix","4","[""images/Red_Circle.png"",""images/Red_Circle.png"",""images/Blue_Circle.png""]","true","[[15,64],[127,249],[232,60]]","false",""
"visual-search-circle","100","2.2.0","392787","78831","visual_search_trial","1371","","f","","","","","","","","","","null","blue_triangle","4","[""images/Red_Triangle.png"",""images/Blue_Triangle.png"",""images/Blue_Triangle.png""]","true","[[78,240],[248,107],[48,26]]","true",""
"visual-search-circle","101","2.2.0","396711","78831","visual_search_trial","2420","","f","","","","","","","","","","null","red_blue_mix","4","[""images/Red_Triangle.png"",""images/Blue_Triangle.png"",""images/Blue_Circle.png""]","true","[[233,187],[125,0],[16,187]]","true",""
"visual-search-circle","102","2.2.0","399169","78831","visual_search_trial","944","","f","","","","","","","","","","null","red_circle","4","[""images/Red_Triangle.png"",""images/Red_Circle.png"",""images/Red_Circle.png"",""images/Red_Circle.png"",""images/Red_Circle.png"",""images/Red_Circle.png"",""images/Red_Circle.png"",""images/Red_Circle.png"",""images/Red_Circle.png""]","true","[[32,41],[0,120],[26,201],[99,247],[183,235],[240,171],[243,86],[191,18],[107,1]]","true",""
"visual-search-circle","103","2.2.0","402362","78831","visual_search_trial","1689","","j","","","","","","","","","","null","red_blue_mix","4","[""images/Blue_Circle.png"",""images/Red_Circle.png"",""images/Red_Circle.png"",""images/Red_Circle.png"",""images/Blue_Triangle.png"",""images/Red_Circle.png""]","true","[[241,169],[222,46],[105,1],[8,80],[27,203],[144,248]]","false",""
"visual-search-circle","104","2.2.0","408951","78831","visual_search_trial","5080","","f","","","","","","","","","","null","red_circle","4","[""images/Red_Triangle.png"",""images/Red_Circle.png"",""images/Red_Circle.png""]","true","[[163,6],[2,150],[208,217]]","true",""
"visual-search-circle","105","2.2.0","411501","78831","visual_search_trial","1044","","j","","","","","","","","","","null","blue_triangle","4","[""images/Blue_Triangle.png"",""images/Blue_Triangle.png"",""images/Blue_Triangle.png""]","true","[[122,249],[234,64],[17,60]]","false",""
"visual-search-circle","106","2.2.0","420820","78831","visual_search_trial","7803","","f","","","","","","","","","","null","red_blue_mix","4","[""images/Blue_Circle.png"",""images/Blue_Circle.png"",""images/Red_Circle.png"",""images/Red_Circle.png"",""images/Blue_Circle.png"",""images/Red_Circle.png"",""images/Red_Circle.png"",""images/Blue_Triangle.png"",""images/Red_Circle.png""]","false","[[220,205],[250,125],[220,44],[146,1],[62,16],[7,82],[7,167],[62,233],[146,248]]","false",""
"visual-search-circle","107","2.2.0","424004","78831","visual_search_trial","1677","","j","","","","","","","","","","null","red_circle","5","[""images/Red_Circle.png"",""images/Red_Circle.png"",""images/Red_Circle.png"",""images/Red_Circle.png"",""images/Red_Circle.png"",""images/Red_Circle.png""]","true","[[125,0],[16,62],[16,187],[125,250],[233,187],[233,62]]","false",""
"visual-search-circle","108","2.2.0","426449","78831","visual_search_trial","941","","j","","","","","","","","","","null","blue_triangle","5","[""images/Blue_Triangle.png"",""images/Blue_Triangle.png"",""images/Blue_Triangle.png"",""images/Blue_Triangle.png"",""images/Blue_Triangle.png"",""images/Blue_Triangle.png""]","true","[[235,66],[129,0],[18,58],[14,183],[120,249],[231,191]]","false",""
"visual-search-circle","109","2.2.0","429268","78831","visual_search_trial","1308","","f","","","","","","","","","","null","red_blue_mix","5","[""images/Red_Triangle.png"",""images/Blue_Circle.png"",""images/Blue_Triangle.png"",""images/Red_Circle.png"",""images/Blue_Circle.png"",""images/Blue_Circle.png""]","true","[[20,56],[13,181],[118,249],[229,193],[236,68],[131,0]]","true",""
"visual-search-circle","110","2.2.0","433536","78831","visual_search_trial","2753","","f","","","","","","","","","","null","blue_triangle","5","[""images/Red_Triangle.png"",""images/Blue_Triangle.png"",""images/Blue_Triangle.png"",""images/Blue_Triangle.png"",""images/Blue_Triangle.png"",""images/Blue_Triangle.png""]","true","[[20,193],[131,249],[236,181],[229,56],[118,0],[13,68]]","true",""
"visual-search-circle","111","2.2.0","438238","78831","visual_search_trial","3194","","f","","","","","","","","","","null","red_circle","5","[""images/Red_Triangle.png"",""images/Red_Circle.png"",""images/Red_Circle.png"",""images/Red_Circle.png"",""images/Red_Circle.png"",""images/Red_Circle.png"",""images/Red_Circle.png"",""images/Red_Circle.png"",""images/Red_Circle.png""]","true","[[189,17],[105,1],[30,42],[0,122],[27,203],[101,247],[185,234],[241,169],[243,84]]","true",""
"visual-search-circle","112","2.2.0","440664","78831","visual_search_trial","922","","f","","","","","","","","","","null","red_blue_mix","5","[""images/Red_Triangle.png"",""images/Blue_Triangle.png"",""images/Red_Circle.png""]","true","[[249,116],[55,21],[70,237]]","true",""
"visual-search-circle","113","2.2.0","443893","78831","visual_search_trial","1721","","f","","","","","","","","","","null","blue_triangle","5","[""images/Red_Triangle.png"",""images/Blue_Triangle.png"",""images/Blue_Triangle.png"",""images/Blue_Triangle.png"",""images/Blue_Triangle.png"",""images/Blue_Triangle.png"",""images/Blue_Triangle.png"",""images/Blue_Triangle.png"",""images/Blue_Triangle.png""]","true","[[246,94],[198,23],[116,0],[38,35],[0,111],[21,194],[90,245],[175,239],[237,179]]","true",""
"visual-search-circle","114","2.2.0","446774","78831","visual_search_trial","1371","","j","","","","","","","","","","null","red_blue_mix","5","[""images/Blue_Triangle.png"",""images/Blue_Circle.png"",""images/Blue_Circle.png"",""images/Red_Circle.png"",""images/Blue_Circle.png"",""images/Blue_Triangle.png"",""images/Red_Circle.png"",""images/Red_Circle.png"",""images/Blue_Circle.png""]","true","[[46,222],[127,249],[207,219],[248,144],[232,60],[165,6],[80,8],[15,64],[2,148]]","false",""
"visual-search-circle","115","2.2.0","449775","78831","visual_search_trial","1492","","j","","","","","","","","","","null","red_circle","5","[""images/Red_Circle.png"",""images/Red_Circle.png"",""images/Red_Circle.png"",""images/Red_Circle.png"",""images/Red_Circle.png"",""images/Red_Circle.png"",""images/Red_Circle.png"",""images/Red_Circle.png"",""images/Red_Circle.png""]","true","[[84,243],[169,241],[234,185],[247,101],[203,27],[122,0],[42,30],[1,105],[17,189]]","false",""
"visual-search-circle","116","2.2.0","456248","78831","visual_search_trial","4959","","j","","","","","","","","","","null","red_blue_mix","5","[""images/Blue_Triangle.png"",""images/Blue_Triangle.png"",""images/Blue_Triangle.png"",""images/Blue_Triangle.png"",""images/Blue_Triangle.png"",""images/Blue_Circle.png""]","true","[[60,17],[0,127],[64,234],[189,232],[249,122],[185,15]]","false",""
"visual-search-circle","117","2.2.0","459274","78831","visual_search_trial","1522","","f","","","","","","","","","","null","red_circle","5","[""images/Red_Triangle.png"",""images/Red_Circle.png"",""images/Red_Circle.png"",""images/Red_Circle.png"",""images/Red_Circle.png"",""images/Red_Circle.png""]","true","[[183,14],[58,18],[0,129],[66,235],[191,231],[249,120]]","true",""
"visual-search-circle","118","2.2.0","462446","78831","visual_search_trial","1662","","f","","","","","","","","","","null","red_blue_mix","5","[""images/Red_Triangle.png"",""images/Red_Circle.png"",""images/Red_Circle.png"",""images/Blue_Circle.png"",""images/Red_Circle.png"",""images/Blue_Circle.png"",""images/Red_Circle.png"",""images/Blue_Triangle.png"",""images/Red_Circle.png""]","true","[[13,68],[3,153],[49,224],[131,249],[210,216],[249,140],[229,56],[161,5],[76,9]]","true",""
"visual-search-circle","119","2.2.0","464730","78831","visual_search_trial","770","","j","","","","","","","","","","null","blue_triangle","5","[""images/Blue_Triangle.png"",""images/Blue_Triangle.png"",""images/Blue_Triangle.png"",""images/Blue_Triangle.png"",""images/Blue_Triangle.png"",""images/Blue_Triangle.png"",""images/Blue_Triangle.png"",""images/Blue_Triangle.png"",""images/Blue_Triangle.png""]","true","[[201,223],[247,150],[235,66],[171,9],[86,6],[18,58],[1,142],[41,217],[120,249]]","false",""
"visual-search-circle","120","2.2.0","467161","78831","visual_search_trial","923","","j","","","","","","","","","","null","red_circle","5","[""images/Red_Circle.png"",""images/Red_Circle.png"",""images/Red_Circle.png""]","true","[[21,194],[237,179],[116,0]]","false",""
"visual-search-circle","121","2.2.0","469645","78831","visual_search_trial","980","","j","","","","","","","","","","null","blue_triangle","5","[""images/Blue_Triangle.png"",""images/Blue_Triangle.png"",""images/Blue_Triangle.png""]","true","[[9,171],[223,201],[142,1]]","false",""
"visual-search-circle","122","2.2.0","472138","78831","visual_search_trial","987","","f","","","","","","","","","","null","red_circle","5","[""images/Red_Triangle.png"",""images/Red_Circle.png"",""images/Red_Circle.png""]","true","[[249,131],[68,13],[56,229]]","true",""
"visual-search-circle","123","2.2.0","475576","78831","visual_search_trial","1926","","j","","","","","","","","","","null","red_blue_mix","5","[""images/Blue_Triangle.png"",""images/Blue_Circle.png"",""images/Red_Circle.png""]","true","[[220,44],[7,82],[146,248]]","false",""
"visual-search-circle","124","2.2.0","478479","78831","visual_search_trial","1386","","f","","","","","","","","","","null","blue_triangle","5","[""images/Red_Triangle.png"",""images/Blue_Triangle.png"",""images/Blue_Triangle.png""]","true","[[6,84],[148,247],[219,42]]","true",""
"html-keyboard-response","125","2.1.0","480855","78831","break","2374","<p>Great job so far! Please rest for a few seconds before continuing.</p>
                 <p>Press the <strong>O</strong> key on your keyboard to continue.</p>","o","","","","","","","","","","","","","","","","","O"
"visual-search-circle","126","2.2.0","483245","78831","visual_search_trial","883","","j","","","","","","","","","","null","red_blue_mix","6","[""images/Red_Circle.png"",""images/Blue_Triangle.png"",""images/Blue_Triangle.png""]","true","[[231,191],[129,0],[14,183]]","false",""
"visual-search-circle","127","2.2.0","485704","78831","visual_search_trial","954","","j","","","","","","","","","","null","red_circle","6","[""images/Red_Circle.png"",""images/Red_Circle.png"",""images/Red_Circle.png"",""images/Red_Circle.png"",""images/Red_Circle.png"",""images/Red_Circle.png""]","true","[[0,120],[58,231],[183,235],[249,129],[191,18],[66,14]]","false",""
"visual-search-circle","128","2.2.0","487788","78831","visual_search_trial","567","","f","","","","","","","","","","null","blue_triangle","6","[""images/Red_Triangle.png"",""images/Blue_Triangle.png"",""images/Blue_Triangle.png""]","true","[[169,8],[1,144],[203,222]]","true",""
"visual-search-circle","129","2.2.0","490015","78831","visual_search_trial","717","","f","","","","","","","","","","null","red_blue_mix","6","[""images/Red_Triangle.png"",""images/Blue_Circle.png"",""images/Blue_Circle.png"",""images/Blue_Circle.png"",""images/Blue_Triangle.png"",""images/Blue_Triangle.png""]","true","[[249,114],[177,11],[53,22],[0,135],[72,238],[196,227]]","true",""
"visual-search-circle","130","2.2.0","492314","78831","visual_search_trial","780","","f","","","","","","","","","","null","blue_triangle","6","[""images/Red_Triangle.png"",""images/Blue_Triangle.png"",""images/Blue_Triangle.png"",""images/Blue_Triangle.png"",""images/Blue_Triangle.png"",""images/Blue_Triangle.png"",""images/Blue_Triangle.png"",""images/Blue_Triangle.png"",""images/Blue_Triangle.png""]","true","[[1,103],[16,187],[82,242],[167,242],[233,187],[248,103],[205,29],[125,0],[44,29]]","true",""
"visual-search-circle","131","2.2.0","494625","78831","visual_search_trial","796","","f","","","","","","","","","","null","red_blue_mix","6","[""images/Red_Triangle.png"",""images/Blue_Triangle.png"",""images/Blue_Circle.png"",""images/Blue_Triangle.png"",""images/Red_Circle.png"",""images/Red_Circle.png"",""images/Red_Circle.png"",""images/Blue_Triangle.png"",""images/Red_Circle.png""]","true","[[9,171],[66,235],[150,247],[223,201],[249,120],[217,41],[142,1],[58,18],[6,86]]","true",""
"visual-search-circle","132","2.2.0","496622","78831","visual_search_trial","483","","f","","","","","","","","","","null","red_circle","6","[""images/Red_Triangle.png"",""images/Red_Circle.png"",""images/Red_Circle.png""]","true","[[12,70],[133,249],[228,55]]","true",""
"visual-search-circle","133","2.2.0","498654","78831","visual_search_trial","527","","f","","","","","","","","","","null","blue_triangle","6","[""images/Red_Triangle.png"",""images/Blue_Triangle.png"",""images/Blue_Triangle.png"",""images/Blue_Triangle.png"",""images/Blue_Triangle.png"",""images/Blue_Triangle.png""]","true","[[213,36],[92,4],[4,92],[36,213],[157,245],[245,157]]","true",""
"visual-search-circle","134","2.2.0","500813","78831","visual_search_trial","653","","f","","","","","","","","","","null","red_circle","6","[""images/Red_Triangle.png"",""images/Red_Circle.png"",""images/Red_Circle.png"",""images/Red_Circle.png"",""images/Red_Circle.png"",""images/Red_Circle.png"",""images/Red_Circle.png"",""images/Red_Circle.png"",""images/Red_Circle.png""]","true","[[58,18],[6,86],[9,171],[66,235],[150,247],[223,201],[249,120],[217,41],[142,1]]","true",""
"visual-search-circle","135","2.2.0","503305","78831","visual_search_trial","978","","j","","","","","","","","","","null","red_blue_mix","6","[""images/Red_Circle.png"",""images/Blue_Triangle.png"",""images/Red_Circle.png"",""images/Blue_Circle.png"",""images/Blue_Circle.png"",""images/Red_Circle.png"",""images/Blue_Triangle.png"",""images/Blue_Triangle.png"",""images/Blue_Circle.png""]","true","[[11,72],[4,157],[53,227],[135,249],[213,213],[249,135],[227,53],[157,4],[72,11]]","false",""
"visual-search-circle","136","2.2.0","505601","78831","visual_search_trial","790","","j","","","","","","","","","","null","blue_triangle","6","[""images/Blue_Triangle.png"",""images/Blue_Triangle.png"",""images/Blue_Triangle.png"",""images/Blue_Triangle.png"",""images/Blue_Triangle.png"",""images/Blue_Triangle.png""]","true","[[127,0],[17,60],[15,185],[122,249],[232,189],[234,64]]","false",""
"visual-search-circle","137","2.2.0","507670","78831","visual_search_trial","561","","j","","","","","","","","","","null","red_circle","6","[""images/Red_Circle.png"",""images/Red_Circle.png"",""images/Red_Circle.png""]","true","[[39,33],[88,244],[246,96]]","false",""
"visual-search-circle","138","2.2.0","509694","78831","visual_search_trial","513","","j","","","","","","","","","","null","blue_triangle","6","[""images/Blue_Triangle.png"",""images/Blue_Triangle.png"",""images/Blue_Triangle.png""]","true","[[23,51],[111,249],[239,74]]","false",""
"visual-search-circle","139","2.2.0","511727","78831","visual_search_trial","523","","j","","","","","","","","","","null","red_circle","6","[""images/Red_Circle.png"",""images/Red_Circle.png"",""images/Red_Circle.png"",""images/Red_Circle.png"",""images/Red_Circle.png"",""images/Red_Circle.png"",""images/Red_Circle.png"",""images/Red_Circle.png"",""images/Red_Circle.png""]","true","[[16,187],[82,242],[167,242],[233,187],[248,103],[205,29],[125,0],[44,29],[1,103]]","false",""
"visual-search-circle","140","2.2.0","514441","78831","visual_search_trial","1204","","f","","","","","","","","","","null","red_blue_mix","6","[""images/Red_Triangle.png"",""images/Blue_Triangle.png"",""images/Blue_Triangle.png""]","true","[[247,150],[86,6],[41,217]]","true",""
"visual-search-circle","141","2.2.0","516669","78831","visual_search_trial","717","","f","","","","","","","","","","null","red_circle","6","[""images/Red_Triangle.png"",""images/Red_Circle.png"",""images/Red_Circle.png"",""images/Red_Circle.png"",""images/Red_Circle.png"",""images/Red_Circle.png""]","true","[[101,247],[219,207],[243,84],[148,2],[30,42],[6,165]]","true",""
"visual-search-circle","142","2.2.0","519148","78831","visual_search_trial","965","","j","","","","","","","","","","null","red_blue_mix","6","[""images/Red_Circle.png"",""images/Blue_Triangle.png"",""images/Blue_Circle.png"",""images/Blue_Circle.png"",""images/Blue_Triangle.png"",""images/Blue_Triangle.png""]","true","[[2,148],[84,243],[207,219],[247,101],[165,6],[42,30]]","false",""
"visual-search-circle","143","2.2.0","521354","78831","visual_search_trial","699","","j","","","","","","","","","","null","blue_triangle","6","[""images/Blue_Triangle.png"",""images/Blue_Triangle.png"",""images/Blue_Triangle.png"",""images/Blue_Triangle.png"",""images/Blue_Triangle.png"",""images/Blue_Triangle.png"",""images/Blue_Triangle.png"",""images/Blue_Triangle.png"",""images/Blue_Triangle.png""]","true","[[0,133],[35,211],[111,249],[194,228],[245,159],[239,74],[179,12],[94,3],[23,51]]","false",""
"visual-search-circle","144","2.2.0","523735","78831","visual_search_trial","863","","f","","","","","","","","","","null","red_blue_mix","7","[""images/Red_Triangle.png"",""images/Red_Circle.png"",""images/Red_Circle.png"",""images/Red_Circle.png"",""images/Blue_Circle.png"",""images/Blue_Triangle.png""]","true","[[213,213],[245,92],[157,4],[36,36],[4,157],[92,245]]","true",""
"visual-search-circle","145","2.2.0","526128","78831","visual_search_trial","887","","f","","","","","","","","","","null","blue_triangle","7","[""images/Red_Triangle.png"",""images/Blue_Triangle.png"",""images/Blue_Triangle.png"",""images/Blue_Triangle.png"",""images/Blue_Triangle.png"",""images/Blue_Triangle.png"",""images/Blue_Triangle.png"",""images/Blue_Triangle.png"",""images/Blue_Triangle.png""]","true","[[227,196],[249,114],[213,36],[135,0],[53,22],[4,92],[11,177],[72,238],[157,245]]","true",""
"visual-search-circle","146","2.2.0","528255","78831","visual_search_trial","613","","f","","","","","","","","","","null","red_circle","7","[""images/Red_Triangle.png"",""images/Red_Circle.png"",""images/Red_Circle.png""]","true","[[217,208],[150,2],[6,163]]","true",""
"visual-search-circle","147","2.2.0","530123","78831","visual_search_trial","359","","f","","","","","","","","","","null","blue_triangle","7","[""images/Blue_Triangle.png"",""images/Blue_Triangle.png"",""images/Blue_Triangle.png""]","false","[[38,214],[246,155],[90,4]]","false",""
"visual-search-circle","148","2.2.0","533132","78831","visual_search_trial","1495","","j","","","","","","","","","","null","red_blue_mix","7","[""images/Blue_Circle.png"",""images/Blue_Circle.png"",""images/Blue_Triangle.png"",""images/Blue_Triangle.png"",""images/Blue_Circle.png"",""images/Red_Circle.png""]","true","[[88,244],[210,216],[246,96],[161,5],[39,33],[3,153]]","false",""
"visual-search-circle","149","2.2.0","535863","78831","visual_search_trial","1218","","j","","","","","","","","","","null","blue_triangle","7","[""images/Blue_Triangle.png"",""images/Blue_Triangle.png"",""images/Blue_Triangle.png"",""images/Blue_Triangle.png"",""images/Blue_Triangle.png"",""images/Blue_Triangle.png"",""images/Blue_Triangle.png"",""images/Blue_Triangle.png"",""images/Blue_Triangle.png""]","true","[[249,116],[214,38],[138,0],[55,21],[4,90],[10,175],[70,237],[155,246],[226,198]]","false",""
"visual-search-circle","150","2.2.0","538917","78831","visual_search_trial","1543","","f","","","","","","","","","","null","red_circle","7","[""images/Red_Triangle.png"",""images/Red_Circle.png"",""images/Red_Circle.png"",""images/Red_Circle.png"",""images/Red_Circle.png"",""images/Red_Circle.png""]","true","[[94,246],[214,211],[245,90],[155,3],[35,38],[4,159]]","true",""
"visual-search-circle","151","2.2.0","542737","78831","visual_search_trial","2316","","f","","","","","","","","","","null","blue_triangle","7","[""images/Red_Triangle.png"",""images/Blue_Triangle.png"",""images/Blue_Triangle.png""]","true","[[246,94],[38,35],[90,245]]","true",""
"visual-search-circle","152","2.2.0","546120","78831","visual_search_trial","1866","","j","","","","","","","","","","null","red_circle","7","[""images/Red_Circle.png"",""images/Red_Circle.png"",""images/Red_Circle.png"",""images/Red_Circle.png"",""images/Red_Circle.png"",""images/Red_Circle.png"",""images/Red_Circle.png"",""images/Red_Circle.png"",""images/Red_Circle.png""]","true","[[0,129],[32,208],[107,248],[191,231],[243,163],[240,78],[183,14],[99,2],[26,48]]","false",""
"visual-search-circle","153","2.2.0","549700","78831","visual_search_trial","2066","","j","","","","","","","","","","null","red_blue_mix","7","[""images/Red_Circle.png"",""images/Blue_Circle.png"",""images/Blue_Circle.png"",""images/Red_Circle.png"",""images/Red_Circle.png"",""images/Red_Circle.png"",""images/Blue_Triangle.png"",""images/Blue_Circle.png"",""images/Blue_Circle.png""]","true","[[14,66],[2,150],[48,223],[129,249],[208,217],[248,142],[231,58],[163,6],[78,9]]","false",""
"visual-search-circle","154","2.2.0","558536","78831","visual_search_trial","7329","","j","","","","","","","","","","null","blue_triangle","7","[""images/Blue_Triangle.png"",""images/Blue_Triangle.png"",""images/Blue_Triangle.png"",""images/Blue_Triangle.png"",""images/Blue_Triangle.png"",""images/Blue_Triangle.png""]","true","[[222,46],[105,1],[8,80],[27,203],[144,248],[241,169]]","false",""
"visual-search-circle","155","2.2.0","561504","78831","visual_search_trial","1460","","f","","","","","","","","","","null","red_circle","7","[""images/Red_Triangle.png"",""images/Red_Circle.png"",""images/Red_Circle.png"",""images/Red_Circle.png"",""images/Red_Circle.png"",""images/Red_Circle.png"",""images/Red_Circle.png"",""images/Red_Circle.png"",""images/Red_Circle.png""]","true","[[185,15],[101,2],[27,46],[0,127],[30,207],[105,248],[189,232],[243,165],[241,80]]","true",""
"visual-search-circle","156","2.2.0","564335","78831","visual_search_trial","1312","","j","","","","","","","","","","null","red_blue_mix","7","[""images/Red_Circle.png"",""images/Red_Circle.png"",""images/Red_Circle.png""]","true","[[246,94],[38,35],[90,245]]","false",""
"visual-search-circle","157","2.2.0","567009","78831","visual_search_trial","1169","","f","","","","","","","","","","null","blue_triangle","7","[""images/Red_Triangle.png"",""images/Blue_Triangle.png"",""images/Blue_Triangle.png"",""images/Blue_Triangle.png"",""images/Blue_Triangle.png"",""images/Blue_Triangle.png""]","true","[[200,224],[249,109],[173,9],[49,25],[0,140],[76,240]]","true",""
"visual-search-circle","158","2.2.0","573245","78831","visual_search_trial","4722","","f","","","","","","","","","","null","red_blue_mix","7","[""images/Red_Triangle.png"",""images/Blue_Triangle.png"",""images/Red_Circle.png""]","true","[[72,238],[249,114],[53,22]]","true",""
"visual-search-circle","159","2.2.0","575989","78831","visual_search_trial","1230","","j","","","","","","","","","","null","red_circle","7","[""images/Red_Circle.png"",""images/Red_Circle.png"",""images/Red_Circle.png""]","true","[[8,169],[222,203],[144,1]]","false",""
"visual-search-circle","160","2.2.0","578708","78831","visual_search_trial","1199","","j","","","","","","","","","","null","red_blue_mix","7","[""images/Red_Triangle.png"",""images/Red_Circle.png"",""images/Blue_Circle.png"",""images/Blue_Triangle.png"",""images/Red_Circle.png"",""images/Red_Circle.png"",""images/Red_Circle.png"",""images/Red_Circle.png"",""images/Blue_Circle.png""]","false","[[153,246],[224,200],[249,118],[216,39],[140,0],[56,20],[5,88],[9,173],[68,236]]","true",""
"visual-search-circle","161","2.2.0","580866","78831","visual_search_trial","638","","j","","","","","","","","","","null","red_circle","7","[""images/Red_Circle.png"",""images/Red_Circle.png"",""images/Red_Circle.png"",""images/Red_Circle.png"",""images/Red_Circle.png"",""images/Red_Circle.png""]","true","[[42,30],[2,148],[84,243],[207,219],[247,101],[165,6]]","false",""
"html-keyboard-response","162","2.1.0","37581361","78831","break","37000492","<p>Great job so far! Please rest for a few seconds before continuing.</p>
                 <p>Press the <strong>C</strong> key on your keyboard to continue.</p>","c","","","","","","","","","","","","","","","","","C"
"visual-search-circle","163","2.2.0","37584076","78831","visual_search_trial","1201","","f","","","","","","","","","","null","red_circle","8","[""images/Red_Triangle.png"",""images/Red_Circle.png"",""images/Red_Circle.png""]","true","[[94,246],[245,90],[35,38]]","true",""
"visual-search-circle","164","2.2.0","37587539","78831","visual_search_trial","1946","","j","","","","","","","","","","null","red_blue_mix","8","[""images/Red_Circle.png"",""images/Blue_Triangle.png"",""images/Red_Circle.png""]","true","[[249,127],[64,15],[60,232]]","false",""
"visual-search-circle","165","2.2.0","37589773","78831","visual_search_trial","717","","f","","","","","","","","","","null","blue_triangle","8","[""images/Red_Triangle.png"",""images/Blue_Triangle.png"",""images/Blue_Triangle.png"",""images/Blue_Triangle.png"",""images/Blue_Triangle.png"",""images/Blue_Triangle.png"",""images/Blue_Triangle.png"",""images/Blue_Triangle.png"",""images/Blue_Triangle.png""]","true","[[36,213],[114,249],[196,227],[245,157],[238,72],[177,11],[92,4],[22,53],[0,135]]","true",""
"visual-search-circle","166","2.2.0","37592270","78831","visual_search_trial","990","","j","","","","","","","","","","null","red_blue_mix","8","[""images/Blue_Triangle.png"",""images/Red_Circle.png"",""images/Blue_Triangle.png"",""images/Blue_Triangle.png"",""images/Blue_Triangle.png"",""images/Blue_Circle.png"",""images/Red_Circle.png"",""images/Blue_Triangle.png"",""images/Red_Circle.png""]","true","[[148,2],[64,15],[8,80],[6,165],[60,232],[144,248],[219,207],[249,127],[222,46]]","false",""
"visual-search-circle","167","2.2.0","37594252","78831","visual_search_trial","470","","f","","","","","","","","","","null","blue_triangle","8","[""images/Red_Triangle.png"",""images/Blue_Triangle.png"",""images/Blue_Triangle.png""]","true","[[133,0],[12,179],[228,194]]","true",""
"visual-search-circle","168","2.2.0","37596543","78831","visual_search_trial","772","","j","","","","","","","","","","null","red_blue_mix","8","[""images/Red_Circle.png"",""images/Blue_Triangle.png"",""images/Blue_Triangle.png"",""images/Blue_Circle.png"",""images/Red_Circle.png"",""images/Blue_Triangle.png""]","true","[[105,1],[8,80],[27,203],[144,248],[241,169],[222,46]]","false",""
"visual-search-circle","169","2.2.0","37598720","78831","visual_search_trial","659","","j","","","","","","","","","","null","blue_triangle","8","[""images/Blue_Triangle.png"",""images/Blue_Triangle.png"",""images/Blue_Triangle.png"",""images/Blue_Triangle.png"",""images/Blue_Triangle.png"",""images/Blue_Triangle.png""]","true","[[64,15],[0,122],[60,232],[185,234],[249,127],[189,17]]","false",""
"visual-search-circle","170","2.2.0","37600953","78831","visual_search_trial","723","","j","","","","","","","","","","null","red_circle","8","[""images/Red_Circle.png"",""images/Red_Circle.png"",""images/Red_Circle.png""]","true","[[39,216],[246,153],[88,5]]","false",""
"visual-search-circle","171","2.2.0","37603192","78831","visual_search_trial","734","","f","","","","","","","","","","null","red_blue_mix","8","[""images/Red_Triangle.png"",""images/Red_Circle.png"",""images/Blue_Triangle.png"",""images/Blue_Circle.png"",""images/Blue_Triangle.png"",""images/Blue_Triangle.png"",""images/Blue_Circle.png"",""images/Blue_Circle.png"",""images/Blue_Triangle.png""]","true","[[0,109],[20,193],[88,244],[173,240],[236,181],[246,96],[200,25],[118,0],[39,33]]","true",""
"visual-search-circle","172","2.2.0","37605201","78831","visual_search_trial","493","","j","","","","","","","","","","null","red_circle","8","[""images/Red_Circle.png"",""images/Red_Circle.png"",""images/Red_Circle.png"",""images/Red_Circle.png"",""images/Red_Circle.png"",""images/Red_Circle.png"",""images/Red_Circle.png"",""images/Red_Circle.png"",""images/Red_Circle.png""]","true","[[0,138],[38,214],[116,249],[198,226],[246,155],[237,70],[175,10],[90,4],[21,55]]","false",""
"visual-search-circle","173","2.2.0","37607192","78831","visual_search_trial","484","","f","","","","","","","","","","null","blue_triangle","8","[""images/Red_Triangle.png"",""images/Blue_Triangle.png"",""images/Blue_Triangle.png"",""images/Blue_Triangle.png"",""images/Blue_Triangle.png"",""images/Blue_Triangle.png""]","true","[[125,0],[16,62],[16,187],[125,250],[233,187],[233,62]]","true",""
"visual-search-circle","174","2.2.0","37609456","78831","visual_search_trial","749","","f","","","","","","","","","","null","red_circle","8","[""images/Red_Triangle.png"",""images/Red_Circle.png"",""images/Red_Circle.png"",""images/Red_Circle.png"",""images/Red_Circle.png"",""images/Red_Circle.png"",""images/Red_Circle.png"",""images/Red_Circle.png"",""images/Red_Circle.png""]","true","[[20,193],[88,244],[173,240],[236,181],[246,96],[200,25],[118,0],[39,33],[0,109]]","true",""
"visual-search-circle","175","2.2.0","37611386","78831","visual_search_trial","421","","j","","","","","","","","","","null","blue_triangle","8","[""images/Blue_Triangle.png"",""images/Blue_Triangle.png"",""images/Blue_Triangle.png"",""images/Blue_Triangle.png"",""images/Blue_Triangle.png"",""images/Blue_Triangle.png"",""images/Blue_Triangle.png"",""images/Blue_Triangle.png"",""images/Blue_Triangle.png""]","true","[[122,249],[203,222],[247,148],[234,64],[169,8],[84,6],[17,60],[1,144],[42,219]]","false",""
"visual-search-circle","176","2.2.0","37613574","78831","visual_search_trial","676","","f","","","","","","","","","","null","red_blue_mix","8","[""images/Red_Triangle.png"",""images/Blue_Triangle.png"",""images/Blue_Triangle.png""]","true","[[239,175],[111,0],[23,198]]","true",""
"visual-search-circle","177","2.2.0","37615653","78831","visual_search_trial","563","","f","","","","","","","","","","null","red_circle","8","[""images/Red_Triangle.png"",""images/Red_Circle.png"",""images/Red_Circle.png"",""images/Red_Circle.png"",""images/Red_Circle.png"",""images/Red_Circle.png""]","true","[[241,80],[144,1],[27,46],[8,169],[105,248],[222,203]]","true",""
"visual-search-circle","178","2.2.0","37617864","78831","visual_search_trial","695","","f","","","","","","","","","","null","red_blue_mix","8","[""images/Red_Triangle.png"",""images/Blue_Triangle.png"",""images/Blue_Triangle.png"",""images/Blue_Circle.png"",""images/Blue_Triangle.png"",""images/Red_Circle.png""]","true","[[185,15],[60,17],[0,127],[64,234],[189,232],[249,122]]","true",""
"visual-search-circle","179","2.2.0","37619917","78831","visual_search_trial","546","","j","","","","","","","","","","null","red_circle","8","[""images/Red_Circle.png"",""images/Red_Circle.png"",""images/Red_Circle.png"",""images/Red_Circle.png"",""images/Red_Circle.png"",""images/Red_Circle.png""]","true","[[25,49],[9,173],[109,249],[224,200],[240,76],[140,0]]","false",""
"visual-search-circle","180","2.2.0","37622128","78831","visual_search_trial","707","","j","","","","","","","","","","null","blue_triangle","8","[""images/Blue_Triangle.png"",""images/Blue_Triangle.png"",""images/Blue_Triangle.png""]","true","[[32,208],[243,163],[99,2]]","false",""
"visual-search-circle","181","2.2.0","37624382","78831","visual_search_trial","739","","j","","","","","","","","","","null","blue_triangle","9","[""images/Blue_Triangle.png"",""images/Blue_Triangle.png"",""images/Blue_Triangle.png"",""images/Blue_Triangle.png"",""images/Blue_Triangle.png"",""images/Blue_Triangle.png""]","true","[[20,56],[13,181],[118,249],[229,193],[236,68],[131,0]]","false",""
"visual-search-circle","182","2.2.0","37626619","78831","visual_search_trial","723","","j","","","","","","","","","","null","red_blue_mix","9","[""images/Blue_Triangle.png"",""images/Red_Circle.png"",""images/Blue_Triangle.png"",""images/Blue_Triangle.png"",""images/Blue_Triangle.png"",""images/Red_Circle.png""]","true","[[148,2],[30,42],[6,165],[101,247],[219,207],[243,84]]","false",""
"visual-search-circle","183","2.2.0","37628871","78831","visual_search_trial","737","","j","","","","","","","","","","null","red_circle","9","[""images/Red_Circle.png"",""images/Red_Circle.png"",""images/Red_Circle.png"",""images/Red_Circle.png"",""images/Red_Circle.png"",""images/Red_Circle.png"",""images/Red_Circle.png"",""images/Red_Circle.png"",""images/Red_Circle.png""]","true","[[208,32],[129,0],[48,26],[2,99],[14,183],[78,240],[163,243],[231,191],[248,107]]","false",""
"visual-search-circle","184","2.2.0","37631157","78831","visual_search_trial","770","","f","","","","","","","","","","null","blue_triangle","9","[""images/Red_Triangle.png"",""images/Blue_Triangle.png"",""images/Blue_Triangle.png""]","true","[[201,223],[171,9],[1,142]]","true",""
"visual-search-circle","185","2.2.0","37633689","78831","visual_search_trial","1017","","j","","","","","","","","","","null","red_circle","9","[""images/Red_Circle.png"",""images/Red_Circle.png"",""images/Red_Circle.png""]","true","[[53,227],[249,135],[72,11]]","false",""
"visual-search-circle","186","2.2.0","37635713","78831","visual_search_trial","515","","j","","","","","","","","","","null","blue_triangle","9","[""images/Red_Triangle.png"",""images/Blue_Triangle.png"",""images/Blue_Triangle.png"",""images/Blue_Triangle.png"",""images/Blue_Triangle.png"",""images/Blue_Triangle.png"",""images/Blue_Triangle.png"",""images/Blue_Triangle.png"",""images/Blue_Triangle.png""]","false","[[234,185],[247,101],[203,27],[122,0],[42,30],[1,105],[17,189],[84,243],[169,241]]","true",""
"visual-search-circle","187","2.2.0","37638009","78831","visual_search_trial","793","","j","","","","","","","","","","null","red_blue_mix","9","[""images/Red_Triangle.png"",""images/Blue_Circle.png"",""images/Blue_Triangle.png""]","false","[[222,203],[144,1],[8,169]]","true",""
"visual-search-circle","188","2.2.0","37640195","78831","visual_search_trial","674","","f","","","","","","","","","","null","red_circle","9","[""images/Red_Triangle.png"",""images/Red_Circle.png"",""images/Red_Circle.png""]","true","[[207,219],[165,6],[2,148]]","true",""
"visual-search-circle","189","2.2.0","37642158","78831","visual_search_trial","455","","f","","","","","","","","","","null","red_blue_mix","9","[""images/Red_Triangle.png"",""images/Blue_Circle.png"",""images/Blue_Triangle.png"",""images/Blue_Triangle.png"",""images/Blue_Triangle.png"",""images/Blue_Circle.png""]","true","[[38,35],[3,155],[90,245],[211,214],[246,94],[159,4]]","true",""
"visual-search-circle","190","2.2.0","37644207","78831","visual_search_trial","538","","j","","","","","","","","","","null","blue_triangle","9","[""images/Blue_Triangle.png"",""images/Blue_Triangle.png"",""images/Blue_Triangle.png""]","true","[[82,242],[248,103],[44,29]]","false",""
"visual-search-circle","191","2.2.0","37646677","78831","visual_search_trial","955","","j","","","","","","","","","","null","red_blue_mix","9","[""images/Blue_Circle.png"",""images/Blue_Circle.png"",""images/Blue_Triangle.png"",""images/Red_Circle.png"",""images/Red_Circle.png"",""images/Blue_Circle.png"",""images/Red_Circle.png"",""images/Blue_Circle.png"",""images/Blue_Triangle.png""]","true","[[244,161],[240,76],[181,13],[96,3],[25,49],[0,131],[33,210],[109,249],[193,229]]","false",""
"visual-search-circle","192","2.2.0","37648876","78831","visual_search_trial","685","","f","","","","","","","","","","null","red_circle","9","[""images/Red_Triangle.png"",""images/Red_Circle.png"",""images/Red_Circle.png"",""images/Red_Circle.png"",""images/Red_Circle.png"",""images/Red_Circle.png""]","true","[[232,189],[234,64],[127,0],[17,60],[15,185],[122,249]]","true",""
"visual-search-circle","193","2.2.0","37651259","78831","visual_search_trial","880","","j","","","","","","","","","","null","red_blue_mix","9","[""images/Blue_Circle.png"",""images/Blue_Circle.png"",""images/Red_Circle.png""]","true","[[120,249],[235,66],[18,58]]","false",""
"visual-search-circle","194","2.2.0","37653423","78831","visual_search_trial","647","","f","","","","","","","","","","null","red_circle","9","[""images/Red_Triangle.png"",""images/Red_Circle.png"",""images/Red_Circle.png"",""images/Red_Circle.png"",""images/Red_Circle.png"",""images/Red_Circle.png"",""images/Red_Circle.png"",""images/Red_Circle.png"",""images/Red_Circle.png""]","true","[[191,18],[107,1],[32,41],[0,120],[26,201],[99,247],[183,235],[240,171],[243,86]]","true",""
"visual-search-circle","195","2.2.0","37655674","78831","visual_search_trial","736","","f","","","","","","","","","","null","blue_triangle","9","[""images/Red_Triangle.png"",""images/Blue_Triangle.png"",""images/Blue_Triangle.png"",""images/Blue_Triangle.png"",""images/Blue_Triangle.png"",""images/Blue_Triangle.png""]","true","[[144,1],[27,46],[8,169],[105,248],[222,203],[241,80]]","true",""
"visual-search-circle","196","2.2.0","37657850","78831","visual_search_trial","667","","f","","","","","","","","","","null","red_blue_mix","9","[""images/Red_Triangle.png"",""images/Blue_Circle.png"",""images/Blue_Triangle.png"",""images/Blue_Triangle.png"",""images/Blue_Circle.png"",""images/Blue_Circle.png"",""images/Red_Circle.png"",""images/Blue_Circle.png"",""images/Blue_Triangle.png""]","true","[[0,116],[23,198],[94,246],[179,237],[239,175],[245,90],[194,21],[111,0],[35,38]]","true",""
"visual-search-circle","197","2.2.0","37659999","78831","visual_search_trial","619","","j","","","","","","","","","","null","blue_triangle","9","[""images/Blue_Triangle.png"",""images/Blue_Triangle.png"",""images/Blue_Triangle.png"",""images/Blue_Triangle.png"",""images/Blue_Triangle.png"",""images/Blue_Triangle.png"",""images/Blue_Triangle.png"",""images/Blue_Triangle.png"",""images/Blue_Triangle.png""]","true","[[159,245],[228,194],[249,111],[211,35],[133,0],[51,23],[3,94],[12,179],[74,239]]","false",""
"visual-search-circle","198","2.2.0","37662207","78831","visual_search_trial","696","","j","","","","","","","","","","null","red_circle","9","[""images/Red_Circle.png"",""images/Red_Circle.png"",""images/Red_Circle.png"",""images/Red_Circle.png"",""images/Red_Circle.png"",""images/Red_Circle.png""]","true","[[80,8],[1,105],[46,222],[169,241],[248,144],[203,27]]","false",""
"html-keyboard-response","199","2.1.0","37665190","78831","break","2983","<p>Great job so far! Please rest for a few seconds before continuing.</p>
                 <p>Press the <strong>N</strong> key on your keyboard to continue.</p>","n","","","","","","","","","","","","","","","","","N"
"visual-search-circle","200","2.2.0","37667654","78831","visual_search_trial","947","","j","","","","","","","","","","null","red_circle","10","[""images/Red_Circle.png"",""images/Red_Circle.png"",""images/Red_Circle.png"",""images/Red_Circle.png"",""images/Red_Circle.png"",""images/Red_Circle.png""]","true","[[247,99],[163,6],[41,32],[2,150],[86,243],[208,217]]","false",""
"visual-search-circle","201","2.2.0","37670056","78831","visual_search_trial","887","","j","","","","","","","","","","null","blue_triangle","10","[""images/Blue_Triangle.png"",""images/Blue_Triangle.png"",""images/Blue_Triangle.png""]","true","[[196,227],[177,11],[0,135]]","false",""
"visual-search-circle","202","2.2.0","37672184","78831","visual_search_trial","620","","j","","","","","","","","","","null","red_circle","10","[""images/Red_Circle.png"",""images/Red_Circle.png"",""images/Red_Circle.png"",""images/Red_Circle.png"",""images/Red_Circle.png"",""images/Red_Circle.png"",""images/Red_Circle.png"",""images/Red_Circle.png"",""images/Red_Circle.png""]","true","[[194,21],[111,0],[35,38],[0,116],[23,198],[94,246],[179,237],[239,175],[245,90]]","false",""
"visual-search-circle","203","2.2.0","37674731","78831","visual_search_trial","1044","","f","","","","","","","","","","null","blue_triangle","10","[""images/Red_Triangle.png"",""images/Blue_Triangle.png"",""images/Blue_Triangle.png""]","true","[[122,249],[234,64],[17,60]]","true",""
"visual-search-circle","204","2.2.0","37676974","78831","visual_search_trial","729","","f","","","","","","","","","","null","red_circle","10","[""images/Red_Triangle.png"",""images/Red_Circle.png"",""images/Red_Circle.png""]","true","[[193,20],[0,118],[181,236]]","true",""
"visual-search-circle","205","2.2.0","37680169","78831","visual_search_trial","1687","","j","","","","","","","","","","null","red_blue_mix","10","[""images/Blue_Triangle.png"",""images/Blue_Triangle.png"",""images/Red_Circle.png""]","true","[[223,48],[9,78],[142,248]]","false",""
"visual-search-circle","206","2.2.0","37681980","78831","visual_search_trial","303","","j","","","","","","","","","","null","red_circle","10","[""images/Red_Triangle.png"",""images/Red_Circle.png"",""images/Red_Circle.png"",""images/Red_Circle.png"",""images/Red_Circle.png"",""images/Red_Circle.png""]","false","[[222,46],[105,1],[8,80],[27,203],[144,248],[241,169]]","true",""
"visual-search-circle","207","2.2.0","37684198","78831","visual_search_trial","711","","j","","","","","","","","","","null","blue_triangle","10","[""images/Blue_Triangle.png"",""images/Blue_Triangle.png"",""images/Blue_Triangle.png"",""images/Blue_Triangle.png"",""images/Blue_Triangle.png"",""images/Blue_Triangle.png"",""images/Blue_Triangle.png"",""images/Blue_Triangle.png"",""images/Blue_Triangle.png""]","true","[[213,213],[249,135],[227,53],[157,4],[72,11],[11,72],[4,157],[53,227],[135,249]]","false",""
"visual-search-circle","208","2.2.0","37686399","78831","visual_search_trial","692","","j","","","","","","","","","","null","red_blue_mix","10","[""images/Blue_Triangle.png"",""images/Blue_Circle.png"",""images/Blue_Triangle.png"",""images/Blue_Circle.png"",""images/Blue_Circle.png"",""images/Blue_Circle.png"",""images/Blue_Circle.png"",""images/Blue_Triangle.png"",""images/Blue_Circle.png""]","true","[[146,1],[62,16],[7,82],[7,167],[62,233],[146,248],[220,205],[250,125],[220,44]]","false",""
"visual-search-circle","209","2.2.0","37688519","78831","visual_search_trial","603","","f","","","","","","","","","","null","blue_triangle","10","[""images/Red_Triangle.png"",""images/Blue_Triangle.png"",""images/Blue_Triangle.png"",""images/Blue_Triangle.png"",""images/Blue_Triangle.png"",""images/Blue_Triangle.png""]","true","[[222,46],[105,1],[8,80],[27,203],[144,248],[241,169]]","true",""
"visual-search-circle","210","2.2.0","37691499","78831","visual_search_trial","1466","","f","","","","","","","","","","null","red_blue_mix","10","[""images/Red_Triangle.png"",""images/Blue_Triangle.png"",""images/Blue_Circle.png"",""images/Blue_Circle.png"",""images/Red_Circle.png"",""images/Blue_Circle.png"",""images/Blue_Triangle.png"",""images/Blue_Circle.png"",""images/Red_Circle.png""]","true","[[1,103],[16,187],[82,242],[167,242],[233,187],[248,103],[205,29],[125,0],[44,29]]","true",""
"visual-search-circle","211","2.2.0","37693852","78831","visual_search_trial","840","","j","","","","","","","","","","null","blue_triangle","10","[""images/Blue_Triangle.png"",""images/Blue_Triangle.png"",""images/Blue_Triangle.png"",""images/Blue_Triangle.png"",""images/Blue_Triangle.png"",""images/Blue_Triangle.png""]","true","[[38,35],[3,155],[90,245],[211,214],[246,94],[159,4]]","false",""
"visual-search-circle","212","2.2.0","37696054","78831","visual_search_trial","693","","j","","","","","","","","","","null","red_blue_mix","10","[""images/Red_Circle.png"",""images/Blue_Circle.png"",""images/Red_Circle.png"",""images/Red_Circle.png"",""images/Red_Circle.png"",""images/Red_Circle.png""]","true","[[0,138],[74,239],[198,226],[249,111],[175,10],[51,23]]","false",""
"visual-search-circle","213","2.2.0","37698302","78831","visual_search_trial","741","","f","","","","","","","","","","null","blue_triangle","10","[""images/Red_Triangle.png"",""images/Blue_Triangle.png"",""images/Blue_Triangle.png"",""images/Blue_Triangle.png"",""images/Blue_Triangle.png"",""images/Blue_Triangle.png"",""images/Blue_Triangle.png"",""images/Blue_Triangle.png"",""images/Blue_Triangle.png""]","true","[[111,249],[194,228],[245,159],[239,74],[179,12],[94,3],[23,51],[0,133],[35,211]]","true",""
"visual-search-circle","214","2.2.0","37700529","78831","visual_search_trial","713","","j","","","","","","","","","","null","red_circle","10","[""images/Red_Circle.png"",""images/Red_Circle.png"",""images/Red_Circle.png""]","true","[[179,237],[194,21],[0,116]]","false",""
"visual-search-circle","215","2.2.0","37702717","78831","visual_search_trial","675","","f","","","","","","","","","","null","red_blue_mix","10","[""images/Red_Triangle.png"",""images/Red_Circle.png"",""images/Blue_Circle.png"",""images/Blue_Circle.png"",""images/Red_Circle.png"",""images/Blue_Circle.png""]","true","[[39,33],[3,153],[88,244],[210,216],[246,96],[161,5]]","true",""
"visual-search-circle","216","2.2.0","37705004","78831","visual_search_trial","781","","f","","","","","","","","","","null","red_circle","10","[""images/Red_Triangle.png"",""images/Red_Circle.png"",""images/Red_Circle.png"",""images/Red_Circle.png"",""images/Red_Circle.png"",""images/Red_Circle.png"",""images/Red_Circle.png"",""images/Red_Circle.png"",""images/Red_Circle.png""]","true","[[179,12],[94,3],[23,51],[0,133],[35,211],[111,249],[194,228],[245,159],[239,74]]","true",""
"visual-search-circle","217","2.2.0","37707216","78831","visual_search_trial","698","","f","","","","","","","","","","null","red_blue_mix","10","[""images/Red_Triangle.png"",""images/Blue_Circle.png"",""images/Red_Circle.png""]","true","[[125,250],[233,62],[16,62]]","true",""
"visual-search-circle","218","2.2.0","37709439","78831","visual_search_trial","705","","j","","","","","","","","","","null","blue_triangle","11","[""images/Blue_Triangle.png"",""images/Blue_Triangle.png"",""images/Blue_Triangle.png"",""images/Blue_Triangle.png"",""images/Blue_Triangle.png"",""images/Blue_Triangle.png""]","true","[[2,99],[41,217],[163,243],[247,150],[208,32],[86,6]]","false",""
"visual-search-circle","219","2.2.0","37711674","78831","visual_search_trial","725","","j","","","","","","","","","","null","red_circle","11","[""images/Red_Circle.png"",""images/Red_Circle.png"",""images/Red_Circle.png"",""images/Red_Circle.png"",""images/Red_Circle.png"",""images/Red_Circle.png"",""images/Red_Circle.png"",""images/Red_Circle.png"",""images/Red_Circle.png""]","true","[[4,90],[10,175],[70,237],[155,246],[226,198],[249,116],[214,38],[138,0],[55,21]]","false",""
"visual-search-circle","220","2.2.0","37713831","78831","visual_search_trial","653","","f","","","","","","","","","","null","blue_triangle","11","[""images/Red_Triangle.png"",""images/Blue_Triangle.png"",""images/Blue_Triangle.png""]","true","[[208,32],[2,99],[163,243]]","true",""
"visual-search-circle","221","2.2.0","37717028","78831","visual_search_trial","1677","","f","","","","","","","","","","null","red_circle","11","[""images/Red_Triangle.png"",""images/Red_Circle.png"",""images/Red_Circle.png"",""images/Red_Circle.png"",""images/Red_Circle.png"",""images/Red_Circle.png""]","true","[[0,111],[51,226],[175,239],[249,138],[198,23],[74,10]]","true",""
"visual-search-circle","222","2.2.0","37719413","78831","visual_search_trial","881","","f","","","","","","","","","","null","red_blue_mix","11","[""images/Red_Triangle.png"",""images/Red_Circle.png"",""images/Red_Circle.png"",""images/Red_Circle.png"",""images/Blue_Circle.png"",""images/Blue_Circle.png"",""images/Blue_Triangle.png"",""images/Blue_Circle.png"",""images/Blue_Circle.png""]","true","[[41,32],[1,107],[18,191],[86,243],[171,240],[235,183],[247,99],[201,26],[120,0]]","true",""
"visual-search-circle","223","2.2.0","37719936","78831","visual_search_trial","749","","j","","","","","","","","","","null","blue_triangle","11","[""images/Blue_Triangle.png"",""images/Blue_Triangle.png"",""images/Blue_Triangle.png"",""images/Blue_Triangle.png"",""images/Blue_Triangle.png"",""images/Blue_Triangle.png"",""images/Blue_Triangle.png"",""images/Blue_Triangle.png"",""images/Blue_Triangle.png""]","true","[[101,247],[185,234],[241,169],[243,84],[189,17],[105,1],[30,42],[0,122],[27,203]]","false",""
"visual-search-circle","224","2.2.0","37722146","78831","visual_search_trial","704","","f","","","","","","","","","","null","red_circle","11","[""images/Red_Triangle.png"",""images/Red_Circle.png"",""images/Red_Circle.png""]","true","[[62,233],[250,125],[62,16]]","true",""
"visual-search-circle","225","2.2.0","37724195","78831","visual_search_trial","531","","f","","","","","","","","","","null","red_blue_mix","11","[""images/Red_Triangle.png"",""images/Red_Circle.png"",""images/Red_Circle.png""]","true","[[179,237],[194,21],[0,116]]","true",""
"visual-search-circle","226","2.2.0","37726229","78831","visual_search_trial","521","","f","","","","","","","","","","null","blue_triangle","11","[""images/Red_Triangle.png"",""images/Blue_Triangle.png"",""images/Blue_Triangle.png"",""images/Blue_Triangle.png"",""images/Blue_Triangle.png"",""images/Blue_Triangle.png"",""images/Blue_Triangle.png"",""images/Blue_Triangle.png"",""images/Blue_Triangle.png""]","true","[[245,159],[239,74],[179,12],[94,3],[23,51],[0,133],[35,211],[111,249],[194,228]]","true",""
"visual-search-circle","227","2.2.0","37728228","78831","visual_search_trial","489","","f","","","","","","","","","","null","red_blue_mix","11","[""images/Red_Triangle.png"",""images/Red_Circle.png"",""images/Red_Circle.png"",""images/Blue_Circle.png"",""images/Blue_Triangle.png"",""images/Blue_Circle.png""]","true","[[55,21],[0,133],[70,237],[194,228],[249,116],[179,12]]","true",""
"visual-search-circle","228","2.2.0","37730271","78831","visual_search_trial","524","","f","","","","","","","","","","null","blue_triangle","11","[""images/Red_Triangle.png"",""images/Blue_Triangle.png"",""images/Blue_Triangle.png"",""images/Blue_Triangle.png"",""images/Blue_Triangle.png"",""images/Blue_Triangle.png""]","true","[[96,3],[5,88],[33,210],[153,246],[244,161],[216,39]]","true",""
"visual-search-circle","229","2.2.0","37732651","78831","visual_search_trial","870","","j","","","","","","","","","","null","red_blue_mix","11","[""images/Red_Circle.png"",""images/Red_Circle.png"",""images/Red_Circle.png"",""images/Blue_Triangle.png"",""images/Blue_Triangle.png"",""images/Red_Circle.png"",""images/Red_Circle.png"",""images/Blue_Circle.png"",""images/Red_Circle.png""]","true","[[179,237],[239,175],[245,90],[194,21],[111,0],[35,38],[0,116],[23,198],[94,246]]","false",""
"visual-search-circle","230","2.2.0","37734960","78831","visual_search_trial","791","","f","","","","","","","","","","null","red_circle","11","[""images/Red_Triangle.png"",""images/Red_Circle.png"",""images/Red_Circle.png"",""images/Red_Circle.png"",""images/Red_Circle.png"",""images/Red_Circle.png"",""images/Red_Circle.png"",""images/Red_Circle.png"",""images/Red_Circle.png""]","true","[[236,181],[246,96],[200,25],[118,0],[39,33],[0,109],[20,193],[88,244],[173,240]]","true",""
"visual-search-circle","231","2.2.0","37737413","78831","visual_search_trial","937","","j","","","","","","","","","","null","red_blue_mix","11","[""images/Red_Circle.png"",""images/Blue_Triangle.png"",""images/Red_Circle.png""]","true","[[74,239],[249,111],[51,23]]","false",""
"visual-search-circle","232","2.2.0","37739564","78831","visual_search_trial","643","","j","","","","","","","","","","null","red_circle","11","[""images/Red_Circle.png"",""images/Red_Circle.png"",""images/Red_Circle.png""]","true","[[2,99],[163,243],[208,32]]","false",""
"visual-search-circle","233","2.2.0","37741777","78831","visual_search_trial","707","","j","","","","","","","","","","null","blue_triangle","11","[""images/Blue_Triangle.png"",""images/Blue_Triangle.png"",""images/Blue_Triangle.png""]","true","[[82,7],[44,220],[248,146]]","false",""
"visual-search-circle","234","2.2.0","37744192","78831","visual_search_trial","907","","j","","","","","","","","","","null","red_blue_mix","11","[""images/Blue_Circle.png"",""images/Blue_Triangle.png"",""images/Blue_Circle.png"",""images/Red_Circle.png"",""images/Red_Circle.png"",""images/Red_Circle.png""]","true","[[208,217],[247,99],[163,6],[41,32],[2,150],[86,243]]","false",""
